Folder: Battery_sort_V2/reader/backup_20210408/Batterieverzeichnis (part 2)

File: 009581.txt
Serialnumber ; Date ; Time ; Action ; Date of Manufacture ; Manufacturer ; Battery Name ; Device-Chemistry ; Specification-Info ; Design-Capacity [mAh] ; Design-Voltage [mV] ; Battery Status ; Cycle Count ; SOC [%] ; Relativ SOC[%] ; Desired Voltage [mV]; Desired Current [mA]; Cell Voltage 1 [mV] ; Cell Voltage 2 [mV] ; Max_Error [%] ; Busvoltage[mV] ; Battery Temperature [°C] ; Charger Temperature [°C] ; Batterysystem ; Case ; PLace
009581;07.02.2021;08:46:49;Normalcharge  ;04.12.2018;FEY;;LION;49;14500;7200;192;2;91;96;8400;;4107;4108;1;12998;23.74;24.84;29,2;BCS1388054;2;11
009581;07.02.2021;11:52:12;Stop          ;04.12.2018;FEY;;LION;49;14500;7200;192;2;91;96;8400;;4107;4108;1;12999;25.84;26.04;29,7;BCS1388054;2;11
009581;03.03.2021;08:17:17;Normalcharge  ;04.12.2018;FEY;;LION;49;14500;7200;192;2;91;96;8400;;4100;4101;1;13012;23.24;23.24;23,5;BCS1388054;2;1
009581;04.03.2021;07:53:45;Stop          ;04.12.2018;FEY;;LION;49;14500;7200;192;2;91;96;8400;;4099;4100;1;13003;26.44;28.14;31,6;BCS1388054;2;1
009581;04.04.2021;11:50:28;Normalcharge  ;04.12.2018;FEY;;LION;49;14500;7200;192;3;46;49;8400;3000;3651;3652;1;12996;25.14;26.64;27,9;BCS1388054;3;8
009581;04.04.2021;11:51:43;Stop           ;04.12.2018;FEY;;LION;49;14500;7200;128;3;46;49;8400;3000;3737;3691;1;12787;25.24;29.24;28,6;BCS1388054;3;8
009581;05.04.2021;09:38:17;Charge to 60% ;04.12.2018;FEY;;LION;49;14500;7200;192;3;46;49;8400;3000;3652;3653;1;13001;25.14;25.74;26,4;BCS1388054;5;14
009581;05.04.2021;10:34:50;Charge to 60% ;04.12.2018;FEY;;LION;49;14500;7200;192;3;57;60;8400;3000;3762;3765;1;12914;28.84;30.64;32,4;BCS1388054;5;14
009581;05.04.2021;13:16:09;Stop          ;04.12.2018;FEY;;LION;49;14500;7200;192;3;57;60;8400;3000;3755;3758;1;12997;27.94;29.54;32,2;BCS1388054;5;14

File: 009585.txt
Serialnumber ; Date ; Time ; Action ; Date of Manufacture ; Manufacturer ; Battery Name ; Device-Chemistry ; Specification-Info ; Design-Capacity [mAh] ; Design-Voltage [mV] ; Battery Status ; Cycle Count ; SOC [%] ; Relativ SOC[%] ; Desired Voltage [mV]; Desired Current [mA]; Cell Voltage 1 [mV] ; Cell Voltage 2 [mV] ; Max_Error [%] ; Busvoltage[mV] ; Battery Temperature [°C] ; Charger Temperature [°C] ; Batterysystem ; Case ; PLace
009585;07.12.2020;04:14:40;Cycle         ;04.12.2018;FEY;;LION;49;14500;7200;192;1;96;96;8400;;4116;4115;1;13005;25.94;27.44;30,3;BCS1388054;7;9
009585;08.12.2020;16:20:20;Stop          ;04.12.2018;FEY;;LION;49;14500;7200;192;1;96;96;8400;;4114;4114;1;13006;28.04;28.64;31,9;BCS1388054;7;9
009585;12.01.2021;04:17:36;Charge to 90% ;04.12.2018;FEY;;LION;49;14500;7200;192;1;95;95;8400;3000;4103;4103;1;13008;23.44;23.14;23,6;BCS1388054;5;1
009585;12.01.2021;05:15:37;Stop          ;04.12.2018;FEY;;LION;49;14500;7200;192;1;90;90;8400;3000;4057;4057;1;13004;27.64;28.54;31,6;BCS1388054;5;1
009585;12.01.2021;05:21:53;Cycle         ;04.12.2018;FEY;;LION;49;14500;7200;192;1;90;90;8400;3000;4057;4057;1;13005;27.64;28.04;30,6;BCS1388054;5;1
009585;13.01.2021;08:31:10;Stop          ;04.12.2018;FEY;;LION;49;14500;7200;224;3;97;100;8400;;4157;4157;1;13003;27.34;28.04;31,1;BCS1388054;5;1
009585;03.03.2021;08:17:46;Normalcharge  ;04.12.2018;FEY;;LION;49;14500;7200;192;3;64;66;8400;3000;3815;3817;1;13028;23.44;23.14;23,6;BCS1388054;7;3
009585;03.03.2021;10:54:05;Stop          ;04.12.2018;FEY;;LION;49;14500;7200;128;3;95;98;8400;3000;4181;4151;1;12709;30.24;33.24;31,4;BCS1388054;7;3
009585;03.03.2021;10:55:49;Normalcharge  ;04.12.2018;FEY;;LION;49;14500;7200;192;3;95;98;8400;3000;4121;4121;1;13020;30.14;31.04;30,6;BCS1388054;7;3
009585;03.03.2021;17:03:24;Stop          ;04.12.2018;FEY;;LION;49;14500;7200;224;3;98;100;8400;;4153;4153;1;13022;26.64;27.44;31,4;BCS1388054;7;3
009585;04.04.2021;11:50:22;Normalcharge  ;04.12.2018;FEY;;LION;49;14500;7200;224;3;96;99;8400;;4133;4133;1;13004;25.24;25.74;27,9;BCS1388054;4;6
009585;04.04.2021;11:51:36;Stop          ;04.12.2018;FEY;;LION;49;14500;7200;224;3;96;99;8400;;4133;4133;1;12717;25.24;26.04;28,6;BCS1388054;4;6

File: 009592.txt
Serialnumber ; Date ; Time ; Action ; Date of Manufacture ; Manufacturer ; Battery Name ; Device-Chemistry ; Specification-Info ; Design-Capacity [mAh] ; Design-Voltage [mV] ; Battery Status ; Cycle Count ; SOC [%] ; Relativ SOC[%] ; Desired Voltage [mV]; Desired Current [mA]; Cell Voltage 1 [mV] ; Cell Voltage 2 [mV] ; Max_Error [%] ; Busvoltage[mV] ; Battery Temperature [°C] ; Charger Temperature [°C] ; Batterysystem ; Case ; PLace
009592;07.12.2020;04:14:21;Cycle         ;04.12.2018;FEY;;LION;49;14500;7200;224;3;97;99;8400;;4155;4155;1;12998;26.04;28.34;30,3;BCS1388054;2;10
009592;08.12.2020;16:19:44;Stop          ;04.12.2018;FEY;;LION;49;14500;7200;224;5;97;100;8400;;4151;4151;1;12998;28.14;29.74;31,9;BCS1388054;2;10
009592;03.03.2021;08:17:08;Normalcharge  ;04.12.2018;FEY;;LION;49;14500;7200;192;5;95;97;8400;;4111;4111;1;13000;23.44;22.84;23,5;BCS1388054;1;11
009592;04.03.2021;07:53:51;Stop          ;04.12.2018;FEY;;LION;49;14500;7200;192;5;95;97;8400;;4111;4110;1;12992;26.34;26.44;31,6;BCS1388054;1;11
009592;04.04.2021;11:50:22;Normalcharge  ;04.12.2018;FEY;;LION;49;14500;7200;192;5;50;51;8400;3000;3661;3661;1;12994;25.14;27.14;27,9;BCS1388054;4;2
009592;04.04.2021;11:51:36;Stop          ;04.12.2018;FEY;;LION;49;14500;7200;128;5;50;52;8400;3000;3745;3699;1;12716;25.24;29.94;28,6;BCS1388054;4;2
009592;05.04.2021;09:38:17;Charge to 60% ;04.12.2018;FEY;;LION;49;14500;7200;192;5;50;52;8400;3000;3662;3662;1;13015;25.34;26.74;26,4;BCS1388054;5;5
009592;05.04.2021;10:34:50;Charge to 60% ;04.12.2018;FEY;;LION;49;14500;7200;192;5;58;60;8400;3000;3742;3742;1;12919;28.04;29.64;32,4;BCS1388054;5;5
009592;05.04.2021;13:16:09;Stop          ;04.12.2018;FEY;;LION;49;14500;7200;192;5;58;60;8400;3000;3740;3740;1;13011;27.84;29.64;32,2;BCS1388054;5;5

File: 009681.txt
Serialnumber ; Date ; Time ; Action ; Date of Manufacture ; Manufacturer ; Battery Name ; Device-Chemistry ; Specification-Info ; Design-Capacity [mAh] ; Design-Voltage [mV] ; Battery Status ; Cycle Count ; SOC [%] ; Relativ SOC[%] ; Desired Voltage [mV]; Desired Current [mA]; Cell Voltage 1 [mV] ; Cell Voltage 2 [mV] ; Max_Error [%] ; Busvoltage[mV] ; Battery Temperature [°C] ; Charger Temperature [°C] ; Batterysystem ; Case ; PLace
009681;10.12.2019;15:28:53;Charge to 30% ;04.12.2018;FEY;;LION;49;14500;7200;224;55;91;99;8400;;4128;4127;1;13026;22.94;24.44;27,1;BCS1388054;4;4
009681;10.12.2019;20:47:57;Stop          ;04.12.2018;FEY;;LION;49;14500;7200;192;56;28;30;8400;3000;3563;3562;1;13026;33.74;32.44;33,4;BCS1388054;4;4
009681;11.12.2019;08:48:41;Fastcharge    ;04.12.2018;FEY;;LION;49;14500;7200;192;56;28;30;8400;3000;3570;3570;1;13025;26.74;27.84;31,9;BCS1388054;4;4
009681;11.12.2019;13:42:44;Stop          ;04.12.2018;FEY;;LION;49;14500;7200;224;56;94;100;8400;;4160;4160;1;13026;30.14;29.44;31,9;BCS1388054;4;4
009681;11.12.2019;15:46:31;Charge to 10% ;04.12.2018;FEY;;LION;49;14500;7200;224;56;95;99;8400;;4153;4153;1;13026;27.54;27.94;31,4;BCS1388054;4;4
009681;11.12.2019;22:50:44;Stop          ;04.12.2018;FEY;;LION;49;14500;7200;192;57;10;10;8400;3000;3362;3362;1;13025;34.24;32.54;33,2;BCS1388054;4;4
009681;12.12.2019;08:45:03;Normalcharge  ;04.12.2018;FEY;;LION;49;14500;7200;192;57;9;10;8400;3000;3370;3369;1;13026;26.94;27.84;31,9;BCS1388054;4;4
009681;12.12.2019;16:41:48;Stop          ;04.12.2018;FEY;;LION;49;14500;7200;224;57;95;100;8400;;4158;4159;1;13025;29.44;29.04;31,5;BCS1388054;4;4
009681;13.12.2019;10:48:01;Charge to 10% ;04.12.2018;FEY;;LION;49;14500;7200;224;57;95;100;8400;;4148;4148;1;13026;26.94;28.14;32,0;BCS1388054;4;4
009681;13.12.2019;15:42:25;Stop          ;04.12.2018;FEY;;LION;49;14500;7200;192;58;34;36;8400;3000;3499;3550;1;13520;33.14;37.34;34,6;BCS1388054;4;4
009681;13.12.2019;15:42:27;Cycle         ;04.12.2018;FEY;;LION;49;14500;7200;192;58;34;36;8400;3000;3499;3550;1;13024;33.14;37.34;34,6;BCS1388054;4;4
009681;14.12.2019;22:44:28;Stop          ;04.12.2018;FEY;;LION;49;14500;7200;224;59;92;99;8400;;4151;4148;1;13026;27.04;28.14;32,0;BCS1388054;4;4
009681;16.12.2019;07:43:14;Charge to 10% ;04.12.2018;FEY;;LION;49;14500;7200;224;59;93;100;8400;;4145;4142;1;13027;26.74;27.44;31,9;BCS1388054;4;4
009681;16.12.2019;14:36:44;Stop          ;04.12.2018;FEY;;LION;49;14500;7200;192;60;10;10;8400;3000;3367;3365;1;13025;32.84;31.24;32,4;BCS1388054;4;4
009681;16.12.2019;14:44:13;Charge to 90% ;04.12.2018;FEY;;LION;49;14500;7200;192;60;10;10;8400;3000;3368;3367;1;13026;32.24;30.14;31,7;BCS1388054;4;4
009681;16.12.2019;20:50:27;Stop          ;04.12.2018;FEY;;LION;49;14500;7200;192;60;84;90;8400;3000;4054;4054;1;13027;31.94;30.44;31,6;BCS1388054;4;4
009681;17.12.2019;08:37:49;Fastcharge    ;04.12.2018;FEY;;LION;49;14500;7200;192;60;84;90;8400;3000;4045;4045;1;13026;26.84;27.84;31,6;BCS1388054;4;4
009681;17.12.2019;10:31:06;Stop          ;04.12.2018;FEY;;LION;49;14500;7200;224;60;94;100;8400;;4159;4159;1;13027;28.44;28.54;31,4;BCS1388054;4;4
009681;17.12.2019;13:38:32;Charge to 10% ;04.12.2018;FEY;;LION;49;14500;7200;224;60;94;100;8400;;4149;4149;1;13026;27.14;27.74;30,8;BCS1388054;4;4
009681;17.12.2019;20:34:29;Stop          ;04.12.2018;FEY;;LION;49;14500;7200;192;61;10;10;8400;3000;3365;3365;1;13025;34.44;32.74;34,1;BCS1388054;4;4
009681;18.12.2019;08:31:26;Fastcharge    ;04.12.2018;FEY;;LION;49;14500;7200;192;61;10;10;8400;3000;3374;3374;1;13027;26.94;27.64;31,6;BCS1388054;4;4
009681;18.12.2019;14:29:12;Stop          ;04.12.2018;FEY;;LION;49;14500;7200;224;61;94;100;8400;;4161;4164;1;13025;30.34;29.54;31,9;BCS1388054;4;4
009681;19.12.2019;08:23:58;Charge to 60% ;04.12.2018;FEY;;LION;49;14500;7200;224;61;95;100;8400;;4150;4151;1;13025;26.84;27.84;31,6;BCS1388054;4;4
009681;19.12.2019;11:30:18;Stop          ;04.12.2018;FEY;;LION;49;14500;7200;192;62;57;60;8400;3000;3766;3768;1;13025;34.34;33.54;34,6;BCS1388054;4;4
009681;19.12.2019;12:16:45;Cycle         ;04.12.2018;FEY;;LION;49;14500;7200;192;62;57;60;8400;3000;3776;3779;1;13026;30.84;30.04;32,7;BCS1388054;4;4
009681;20.12.2019;17:30:48;Stop          ;04.12.2018;FEY;;LION;49;14500;7200;224;63;93;100;8400;;4151;4150;1;13026;27.14;27.44;30,6;BCS1388054;4;4
009681;06.01.2020;06:34:50;Charge to 60% ;04.12.2018;FEY;;LION;49;14500;7200;224;63;92;99;8400;;4122;4121;1;13027;27.04;28.04;31,9;BCS1388054;4;4
009681;06.01.2020;09:30:33;Stop          ;04.12.2018;FEY;;LION;49;14500;7200;192;63;56;60;8400;3000;3764;3765;1;13025;33.54;32.74;33,7;BCS1388054;4;4
009681;06.01.2020;09:50:38;Fastcharge    ;04.12.2018;FEY;;LION;49;14500;7200;192;63;56;60;8400;3000;3773;3774;1;13028;32.04;30.94;32,7;BCS1388054;4;4
009681;06.01.2020;13:09:19;Stop          ;04.12.2018;FEY;;LION;49;14500;7200;224;63;94;100;8400;;4160;4160;1;13027;29.74;28.94;31,4;BCS1388054;4;4

File: 009688.txt
Serialnumber ; Date ; Time ; Action ; Date of Manufacture ; Manufacturer ; Battery Name ; Device-Chemistry ; Specification-Info ; Design-Capacity [mAh] ; Design-Voltage [mV] ; Battery Status ; Cycle Count ; SOC [%] ; Relativ SOC[%] ; Desired Voltage [mV]; Desired Current [mA]; Cell Voltage 1 [mV] ; Cell Voltage 2 [mV] ; Max_Error [%] ; Busvoltage[mV] ; Battery Temperature [°C] ; Charger Temperature [°C] ; Batterysystem ; Case ; PLace
009688;07.12.2020;04:14:36;Cycle         ;04.12.2018;FEY;;LION;49;14500;7200;192;2;99;98;8400;;4138;4141;1;13009;25.74;27.44;30,3;BCS1388054;6;11
009688;08.12.2020;16:20:13;Stop          ;04.12.2018;FEY;;LION;49;14500;7200;192;2;99;98;8400;;4135;4138;1;13011;27.74;28.84;31,9;BCS1388054;6;11
009688;12.01.2021;04:17:33;Charge to 90% ;04.12.2018;FEY;;LION;49;14500;7200;192;2;98;97;8400;;4122;4124;1;12998;23.14;23.44;23,6;BCS1388054;4;11
009688;12.01.2021;04:57:16;Stop          ;04.12.2018;FEY;;LION;49;14500;7200;192;2;91;90;8400;3000;4058;4060;1;12994;27.14;27.74;31,6;BCS1388054;4;11
009688;12.01.2021;05:21:49;Cycle         ;04.12.2018;FEY;;LION;49;14500;7200;192;2;91;90;8400;3000;4061;4063;1;12995;27.14;26.74;30,4;BCS1388054;4;11
009688;13.01.2021;08:19:19;Stop          ;04.12.2018;FEY;;LION;49;14500;7200;224;3;98;100;8400;;4156;4157;1;12995;27.14;27.04;30,7;BCS1388054;4;11
009688;03.03.2021;08:17:17;Normalcharge  ;04.12.2018;FEY;;LION;49;14500;7200;192;3;94;95;8400;3000;4092;4092;1;13009;23.24;24.34;23,5;BCS1388054;2;12
009688;04.03.2021;07:53:46;Stop          ;04.12.2018;FEY;;LION;49;14500;7200;224;3;99;100;8400;;4148;4149;1;12999;26.34;27.54;31,6;BCS1388054;2;12
009688;04.04.2021;11:50:28;Normalcharge  ;04.12.2018;FEY;;LION;49;14500;7200;192;3;53;55;8400;3000;3696;3695;1;13015;25.04;26.04;27,9;BCS1388054;3;15
009688;04.04.2021;11:51:43;Stop           ;04.12.2018;FEY;;LION;49;14500;7200;128;3;54;55;8400;3000;3783;3736;1;12783;25.14;29.14;28,6;BCS1388054;3;15
009688;05.04.2021;09:37:46;Charge to 60% ;04.12.2018;FEY;;LION;49;14500;7200;192;3;54;55;8400;3000;3698;3697;1;13007;25.14;26.14;26,1;BCS1388054;2;1
009688;05.04.2021;10:03:48;Stop          ;04.12.2018;FEY;;LION;49;14500;7200;192;3;58;60;8400;3000;3766;3762;1;13003;27.14;29.44;31,4;BCS1388054;2;1

File: 009689.txt
Serialnumber ; Date ; Time ; Action ; Date of Manufacture ; Manufacturer ; Battery Name ; Device-Chemistry ; Specification-Info ; Design-Capacity [mAh] ; Design-Voltage [mV] ; Battery Status ; Cycle Count ; SOC [%] ; Relativ SOC[%] ; Desired Voltage [mV]; Desired Current [mA]; Cell Voltage 1 [mV] ; Cell Voltage 2 [mV] ; Max_Error [%] ; Busvoltage[mV] ; Battery Temperature [°C] ; Charger Temperature [°C] ; Batterysystem ; Case ; PLace
009689;07.12.2020;04:14:36;Cycle         ;04.12.2018;FEY;;LION;49;14500;7200;192;5;96;98;8400;;4125;4125;1;12997;25.44;27.74;30,3;BCS1388054;6;1
009689;08.12.2020;16:20:13;Stop          ;04.12.2018;FEY;;LION;49;14500;7200;192;5;96;98;8400;;4123;4123;1;12997;27.44;29.34;31,9;BCS1388054;6;1
009689;12.01.2021;04:17:47;Charge to 90% ;04.12.2018;FEY;;LION;49;14500;7200;192;5;95;97;8400;;4112;4112;1;13028;22.74;23.34;23,8;BCS1388054;7;3
009689;12.01.2021;04:57:19;Stop          ;04.12.2018;FEY;;LION;49;14500;7200;192;5;89;90;8400;3000;4050;4050;1;13022;26.14;28.94;31,5;BCS1388054;7;3
009689;12.01.2021;05:22:01;Cycle         ;04.12.2018;FEY;;LION;49;14500;7200;192;5;89;90;8400;3000;4054;4054;1;13024;26.34;27.54;30,4;BCS1388054;7;3
009689;13.01.2021;08:19:29;Stop          ;04.12.2018;FEY;;LION;49;14500;7200;224;6;96;100;8400;;4153;4154;1;13023;26.24;27.54;30,7;BCS1388054;7;3
009689;21.02.2021;13:43:32;Normalcharge  ;04.12.2018;FEY;;LION;49;14500;7200;224;6;95;99;8400;;4130;4130;1;13005;22.94;24.84;27,5;BCS1388054;2;16
009689;21.02.2021;19:27:00;Stop          ;04.12.2018;FEY;;LION;49;14500;7200;224;6;95;99;8400;;4131;4131;1;13004;26.74;27.84;31,1;BCS1388054;2;16
009689;04.04.2021;11:50:39;Normalcharge  ;04.12.2018;FEY;;LION;49;14500;7200;192;6;94;98;8400;;4116;4116;1;13007;24.74;26.94;28,1;BCS1388054;1;6
009689;04.04.2021;11:51:54;Stop          ;04.12.2018;FEY;;LION;49;14500;7200;192;6;94;98;8400;;4116;4115;1;12570;24.74;27.14;28,8;BCS1388054;1;6

File: 009737.txt
Serialnumber ; Date ; Time ; Action ; Date of Manufacture ; Manufacturer ; Battery Name ; Device-Chemistry ; Specification-Info ; Design-Capacity [mAh] ; Design-Voltage [mV] ; Battery Status ; Cycle Count ; SOC [%] ; Relativ SOC[%] ; Desired Voltage [mV]; Desired Current [mA]; Cell Voltage 1 [mV] ; Cell Voltage 2 [mV] ; Max_Error [%] ; Busvoltage[mV] ; Battery Temperature [°C] ; Charger Temperature [°C] ; Batterysystem ; Case ; PLace
009737;07.12.2020;04:14:21;Cycle         ;04.12.2018;FEY;;LION;49;14500;7200;224;2;97;99;8400;;4141;4140;1;13003;25.84;27.94;30,3;BCS1388054;2;5
009737;08.12.2020;16:19:44;Stop          ;04.12.2018;FEY;;LION;49;14500;7200;224;3;98;100;8400;;4152;4154;1;13004;27.84;29.34;31,9;BCS1388054;2;5
009737;03.03.2021;08:17:29;Normalcharge  ;04.12.2018;FEY;;LION;49;14500;7200;192;4;82;85;8400;3000;3976;3977;1;13020;23.24;22.54;23,5;BCS1388054;4;18
009737;03.03.2021;10:32:46;Stop          ;04.12.2018;FEY;;LION;49;14500;7200;224;4;98;100;8400;;4164;4164;1;13014;28.24;28.94;32,0;BCS1388054;4;18
009737;04.04.2021;11:50:22;Normalcharge  ;04.12.2018;FEY;;LION;49;14500;7200;192;4;53;55;8400;3000;3692;3693;1;13017;25.24;25.04;27,9;BCS1388054;4;18
009737;04.04.2021;11:51:36;Stop          ;04.12.2018;FEY;;LION;49;14500;7200;128;4;53;55;8400;3000;3780;3732;1;12711;25.24;28.04;28,6;BCS1388054;4;18
009737;05.04.2021;09:38:00;Ladung auf 60% ;04.12.2018;FEY;;LION;49;14500;7200;192;4;53;55;8400;3000;3694;3695;1;13007;25.14;25.34;26,3;BCS1388054;3;4
009737;05.04.2021;10:06:07;Stop           ;04.12.2018;FEY;;LION;49;14500;7200;192;4;58;60;8400;3000;3756;3758;1;13004;27.24;28.14;31,4;BCS1388054;3;4

File: 009756.txt
Serialnumber ; Date ; Time ; Action ; Date of Manufacture ; Manufacturer ; Battery Name ; Device-Chemistry ; Specification-Info ; Design-Capacity [mAh] ; Design-Voltage [mV] ; Battery Status ; Cycle Count ; SOC [%] ; Relativ SOC[%] ; Desired Voltage [mV]; Desired Current [mA]; Cell Voltage 1 [mV] ; Cell Voltage 2 [mV] ; Max_Error [%] ; Busvoltage[mV] ; Battery Temperature [°C] ; Charger Temperature [°C] ; Batterysystem ; Case ; PLace
009756;07.12.2020;04:14:32;Cycle         ;04.12.2018;FEY;;LION;49;14500;7200;192;4;98;98;8400;;4145;4143;1;13002;25.84;28.44;30,3;BCS1388054;5;3
009756;08.12.2020;16:20:01;Stop          ;04.12.2018;FEY;;LION;49;14500;7200;192;4;98;98;8400;;4143;4141;1;13000;28.04;30.04;31,7;BCS1388054;5;3
009756;07.02.2021;08:46:54;Normalcharge  ;04.12.2018;FEY;;LION;49;14500;7200;192;4;95;95;8400;3000;4100;4099;1;13001;23.74;24.54;29,2;BCS1388054;3;16
009756;07.02.2021;11:52:16;Stop           ;04.12.2018;FEY;;LION;49;14500;7200;224;4;100;100;8400;;4148;4146;1;13001;26.04;26.14;29,7;BCS1388054;3;16
009756;03.03.2021;08:17:35;Normalcharge  ;04.12.2018;FEY;;LION;49;14500;7200;192;4;76;79;8400;3000;3923;3923;1;13017;23.34;24.44;23,6;BCS1388054;5;5
009756;03.03.2021;11:26:36;Stop          ;04.12.2018;FEY;;LION;49;14500;7200;224;4;98;100;8400;;4156;4155;1;13012;28.34;29.74;31,5;BCS1388054;5;5
009756;04.04.2021;11:50:39;Normalcharge  ;04.12.2018;FEY;;LION;49;14500;7200;192;4;54;55;8400;3000;3699;3700;1;12999;25.14;26.04;28,1;BCS1388054;1;18
009756;04.04.2021;11:51:54;Stop          ;04.12.2018;FEY;;LION;49;14500;7200;128;4;54;55;8400;3000;3790;3743;1;12550;25.14;29.24;28,8;BCS1388054;1;18
009756;05.04.2021;09:37:46;Charge to 60% ;04.12.2018;FEY;;LION;49;14500;7200;192;4;54;55;8400;3000;3702;3703;1;13006;25.34;26.64;26,1;BCS1388054;2;2
009756;05.04.2021;10:03:48;Stop          ;04.12.2018;FEY;;LION;49;14500;7200;192;4;58;60;8400;3000;3761;3765;1;13002;27.04;30.24;31,4;BCS1388054;2;2

File: 009764.txt
Serialnumber ; Date ; Time ; Action ; Date of Manufacture ; Manufacturer ; Battery Name ; Device-Chemistry ; Specification-Info ; Design-Capacity [mAh] ; Design-Voltage [mV] ; Battery Status ; Cycle Count ; SOC [%] ; Relativ SOC[%] ; Desired Voltage [mV]; Desired Current [mA]; Cell Voltage 1 [mV] ; Cell Voltage 2 [mV] ; Max_Error [%] ; Busvoltage[mV] ; Battery Temperature [°C] ; Charger Temperature [°C] ; Batterysystem ; Case ; PLace
009764;07.12.2020;04:14:40;Cycle         ;04.12.2018;FEY;;LION;49;14500;7200;192;3;95;95;8400;3000;4101;4101;1;13018;25.64;26.84;30,3;BCS1388054;7;15
009764;08.12.2020;16:20:20;Stop          ;04.12.2018;FEY;;LION;49;14500;7200;224;4;97;100;8400;;4153;4152;1;13018;27.74;28.34;31,9;BCS1388054;7;15
009764;03.03.2021;08:17:46;Normalcharge  ;04.12.2018;FEY;;LION;49;14500;7200;192;4;56;57;8400;3000;3721;3721;1;13031;23.24;23.34;23,6;BCS1388054;7;7
009764;03.03.2021;10:54:05;Stop          ;04.12.2018;FEY;;LION;49;14500;7200;128;4;88;90;8400;3000;4149;4103;1;12710;30.54;35.44;31,4;BCS1388054;7;7
009764;03.03.2021;10:55:49;Normalcharge  ;04.12.2018;FEY;;LION;49;14500;7200;192;4;88;90;8400;3000;4062;4063;1;13026;30.44;32.54;30,6;BCS1388054;7;7
009764;03.03.2021;17:03:24;Stop          ;04.12.2018;FEY;;LION;49;14500;7200;224;4;98;100;8400;;4153;4153;1;13025;26.44;27.74;31,4;BCS1388054;7;7
009764;04.04.2021;11:49:55;Normalcharge  ;04.12.2018;FEY;;LION;49;14500;7200;224;4;96;99;8400;;4132;4131;1;13032;25.14;26.44;27,5;BCS1388054;7;8
009764;04.04.2021;11:51:17;Stop          ;04.12.2018;FEY;;LION;49;14500;7200;224;4;96;99;8400;;4132;4132;1;12757;25.14;26.94;28,4;BCS1388054;7;8

File: 009782.txt
Serialnumber ; Date ; Time ; Action ; Date of Manufacture ; Manufacturer ; Battery Name ; Device-Chemistry ; Specification-Info ; Design-Capacity [mAh] ; Design-Voltage [mV] ; Battery Status ; Cycle Count ; SOC [%] ; Relativ SOC[%] ; Desired Voltage [mV]; Desired Current [mA]; Cell Voltage 1 [mV] ; Cell Voltage 2 [mV] ; Max_Error [%] ; Busvoltage[mV] ; Battery Temperature [°C] ; Charger Temperature [°C] ; Batterysystem ; Case ; PLace
009782;30.11.2020;09:42:55;Stop          ;04.12.2018;FEY;;LION;49;14500;7200;224;5;97;100;8400;;4154;4155;1;13023;27.84;29.14;31,7;BCS1388054;7;7
009782;07.02.2021;08:46:43;Normalcharge  ;04.12.2018;FEY;;LION;49;14500;7200;192;5;94;97;8400;;4101;4102;1;13000;23.94;25.44;29,2;BCS1388054;1;18
009782;07.02.2021;11:52:07;Stop          ;04.12.2018;FEY;;LION;49;14500;7200;192;5;94;97;8400;;4101;4101;1;12997;25.64;26.64;29,7;BCS1388054;1;18
009782;03.03.2021;08:17:46;Normalcharge  ;04.12.2018;FEY;;LION;49;14500;7200;192;5;61;64;8400;3000;3791;3791;1;13037;23.14;24.04;23,6;BCS1388054;7;5
009782;03.03.2021;10:54:05;Stop          ;04.12.2018;FEY;;LION;49;14500;7200;128;5;93;97;8400;3000;4180;4146;1;12711;29.94;31.64;31,4;BCS1388054;7;5
009782;03.03.2021;10:55:49;Normalcharge  ;04.12.2018;FEY;;LION;49;14500;7200;192;5;93;97;8400;3000;4107;4108;1;13031;29.84;30.04;30,6;BCS1388054;7;5
009782;03.03.2021;17:03:24;Stop          ;04.12.2018;FEY;;LION;49;14500;7200;224;5;97;100;8400;;4152;4152;1;13033;26.24;27.44;31,4;BCS1388054;7;5
009782;04.04.2021;11:50:28;Normalcharge  ;04.12.2018;FEY;;LION;49;14500;7200;192;6;53;54;8400;3000;3685;3685;1;13005;25.04;25.64;27,9;BCS1388054;3;4
009782;04.04.2021;11:51:43;Stop           ;04.12.2018;FEY;;LION;49;14500;7200;128;6;53;54;8400;3000;3774;3725;1;12791;25.14;28.44;28,6;BCS1388054;3;4
009782;05.04.2021;09:38:00;Ladung auf 60% ;04.12.2018;FEY;;LION;49;14500;7200;192;6;53;54;8400;3000;3687;3686;1;12996;25.04;26.24;26,3;BCS1388054;3;8
009782;05.04.2021;10:06:07;Stop           ;04.12.2018;FEY;;LION;49;14500;7200;192;6;58;60;8400;3000;3750;3748;1;12994;27.34;30.14;31,4;BCS1388054;3;8

File: 009793.txt
Serialnumber ; Date ; Time ; Action ; Date of Manufacture ; Manufacturer ; Battery Name ; Device-Chemistry ; Specification-Info ; Design-Capacity [mAh] ; Design-Voltage [mV] ; Battery Status ; Cycle Count ; SOC [%] ; Relativ SOC[%] ; Desired Voltage [mV]; Desired Current [mA]; Cell Voltage 1 [mV] ; Cell Voltage 2 [mV] ; Max_Error [%] ; Busvoltage[mV] ; Battery Temperature [°C] ; Charger Temperature [°C] ; Batterysystem ; Case ; PLace
009793;02.12.2020;11:43:08;Cycle         ;04.12.2018;FEY;;LION;49;14500;7200;192;3;80;81;8400;3000;3931;3933;1;12992;26.04;27.84;28,4;BCS1388054;1;1
009793;03.12.2020;15:31:47;Stop          ;04.12.2018;FEY;;LION;49;14500;7200;224;4;96;99;8400;;4155;4156;1;12993;26.74;28.14;28,8;BCS1388054;1;1
009793;03.12.2020;17:28:02;Normalcharge  ;04.12.2018;FEY;;LION;49;14500;7200;224;4;96;99;8400;;4153;4155;1;12992;26.64;28.24;28,9;BCS1388054;1;1
009793;03.03.2021;08:17:17;Normalcharge  ;04.12.2018;FEY;;LION;49;14500;7200;192;4;91;95;8400;3000;4086;4086;1;13020;23.14;23.44;23,5;BCS1388054;2;9
009793;04.03.2021;07:53:46;Stop          ;04.12.2018;FEY;;LION;49;14500;7200;224;4;97;100;8400;;4145;4145;1;13010;26.44;27.74;31,6;BCS1388054;2;9
009793;04.04.2021;11:50:39;Normalcharge  ;04.12.2018;FEY;;LION;49;14500;7200;192;5;51;53;8400;3000;3679;3680;1;12995;24.94;27.44;28,1;BCS1388054;1;8
009793;04.04.2021;11:51:54;Stop          ;04.12.2018;FEY;;LION;49;14500;7200;128;5;51;53;8400;3000;3765;3717;1;12562;25.04;30.04;28,8;BCS1388054;1;8
009793;05.04.2021;09:38:17;Charge to 60% ;04.12.2018;FEY;;LION;49;14500;7200;192;5;51;53;8400;3000;3681;3682;1;13007;25.14;25.34;26,4;BCS1388054;5;1
009793;05.04.2021;10:34:50;Charge to 60% ;04.12.2018;FEY;;LION;49;14500;7200;192;5;57;60;8400;3000;3746;3749;1;12923;27.54;28.94;32,4;BCS1388054;5;1
009793;05.04.2021;13:16:09;Stop          ;04.12.2018;FEY;;LION;49;14500;7200;192;5;57;60;8400;3000;3744;3747;1;13003;27.64;28.84;32,2;BCS1388054;5;1

File: 009795.txt
Serialnumber ; Date ; Time ; Action ; Date of Manufacture ; Manufacturer ; Battery Name ; Device-Chemistry ; Specification-Info ; Design-Capacity [mAh] ; Design-Voltage [mV] ; Battery Status ; Cycle Count ; SOC [%] ; Relativ SOC[%] ; Desired Voltage [mV]; Desired Current [mA]; Cell Voltage 1 [mV] ; Cell Voltage 2 [mV] ; Max_Error [%] ; Busvoltage[mV] ; Battery Temperature [°C] ; Charger Temperature [°C] ; Batterysystem ; Case ; PLace
009795;07.12.2020;04:14:17;Cycle         ;04.12.2018;FEY;;LION;49;14500;7200;224;2;98;99;8400;;4142;4143;1;12998;25.84;27.04;30,3;BCS1388054;1;18
009795;08.12.2020;16:19:38;Stop          ;04.12.2018;FEY;;LION;49;14500;7200;224;3;97;100;8400;;4152;4152;1;12997;27.24;28.54;31,9;BCS1388054;1;18
009795;03.03.2021;08:17:08;Normalcharge  ;04.12.2018;FEY;;LION;49;14500;7200;192;3;94;97;8400;;4113;4113;1;13014;23.14;22.14;23,5;BCS1388054;1;13
009795;04.03.2021;07:53:51;Stop          ;04.12.2018;FEY;;LION;49;14500;7200;192;3;94;97;8400;;4113;4113;1;13009;26.24;26.94;31,6;BCS1388054;1;13
009795;04.04.2021;11:50:02;Normalcharge  ;04.12.2018;FEY;;LION;49;14500;7200;192;4;51;53;8400;3000;3674;3674;1;12997;25.04;26.04;27,7;BCS1388054;6;10
009795;04.04.2021;11:51:24;Stop          ;04.12.2018;FEY;;LION;49;14500;7200;128;4;51;53;8400;3000;3762;3713;1;12669;25.04;29.24;28,5;BCS1388054;6;10
009795;05.04.2021;09:38:17;Charge to 60% ;04.12.2018;FEY;;LION;49;14500;7200;192;4;51;53;8400;3000;3676;3676;1;13011;25.04;26.44;26,4;BCS1388054;5;2
009795;05.04.2021;10:34:50;Charge to 60% ;04.12.2018;FEY;;LION;49;14500;7200;192;4;58;60;8400;3000;3746;3746;1;12924;27.64;30.34;32,4;BCS1388054;5;2
009795;05.04.2021;13:16:09;Stop          ;04.12.2018;FEY;;LION;49;14500;7200;192;4;58;60;8400;3000;3744;3744;1;13006;27.74;30.24;32,2;BCS1388054;5;2