Folder: Battery_sort_V2/reader/backup_20210408/Batterieverzeichnis

Note: reader/backup_20210408/Batterieverzeichnis/009545.txt
Serialnumber ; Date ; Time ; Action ; Date of Manufacture ; Manufacturer ; Battery Name ; Device-Chemistry ; Specification-Info ; Design-Capacity [mAh] ; Design-Voltage [mV] ; Battery Status ; Cycle Count ; SOC [%] ; Relativ SOC[%] ; Desired Voltage [mV]; Desired Current [mA]; Cell Voltage 1 [mV] ; Cell Voltage 2 [mV] ; Max_Error [%] ; Busvoltage[mV] ; Battery Temperature [°C] ; Charger Temperature [°C] ; Batterysystem ; Case ; PLace
009545;12.01.2021;04:17:22;Charge to 90% ;03.12.2018;FEY;;LION;49;14500;7200;192;3;95;95;8400;3000;4108;4107;1;12993;22.64;24.04;23,5;BCS1388054;2;7
009545;12.01.2021;04:54:21;Stop          ;03.12.2018;FEY;;LION;49;14500;7200;192;3;90;90;8400;3000;4055;4055;1;12986;25.84;31.14;31,9;BCS1388054;2;7
009545;12.01.2021;05:21:40;Cycle         ;03.12.2018;FEY;;LION;49;14500;7200;192;3;90;90;8400;3000;4059;4058;1;12987;26.44;29.14;30,6;BCS1388054;2;7
009545;13.01.2021;08:20:19;Stop          ;03.12.2018;FEY;;LION;49;14500;7200;224;5;96;100;8400;;4154;4155;1;12987;26.74;28.84;30,8;BCS1388054;2;7
009545;21.02.2021;13:43:48;Normalcharge  ;03.12.2018;FEY;;LION;49;14500;7200;192;5;51;53;8400;3000;3680;3680;1;13004;22.64;23.04;27,7;BCS1388054;3;6
009545;21.02.2021;20:44:52;Stop           ;03.12.2018;FEY;;LION;49;14500;7200;224;5;97;100;8400;;4152;4153;1;12998;26.04;26.64;31,2;BCS1388054;3;6

Note: reader/backup_20210408/Batterieverzeichnis/009594.txt
Serialnumber ; Date ; Time ; Action ; Date of Manufacture ; Manufacturer ; Battery Name ; Device-Chemistry ; Specification-Info ; Design-Capacity [mAh] ; Design-Voltage [mV] ; Battery Status ; Cycle Count ; SOC [%] ; Relativ SOC[%] ; Desired Voltage [mV]; Desired Current [mA]; Cell Voltage 1 [mV] ; Cell Voltage 2 [mV] ; Max_Error [%] ; Busvoltage[mV] ; Battery Temperature [°C] ; Charger Temperature [°C] ; Batterysystem ; Case ; PLace
009594;07.12.2020;04:14:40;Cycle         ;03.12.2018;FEY;;LION;49;14500;7200;192;1;96;97;8400;;4136;4135;1;13031;25.04;27.54;30,3;BCS1388054;7;5
009594;08.12.2020;16:20:20;Stop          ;03.12.2018;FEY;;LION;49;14500;7200;192;1;96;97;8400;;4134;4133;1;13031;26.94;28.74;31,9;BCS1388054;7;5
009594;12.01.2021;04:17:36;Charge to 90% ;03.12.2018;FEY;;LION;49;14500;7200;192;1;96;97;8400;;4121;4120;1;13014;22.44;23.74;23,6;BCS1388054;5;4
009594;12.01.2021;05:15:37;Stop          ;03.12.2018;FEY;;LION;49;14500;7200;192;1;90;90;8400;3000;4061;4061;1;13007;26.64;28.64;31,6;BCS1388054;5;4
009594;12.01.2021;05:21:53;Cycle         ;03.12.2018;FEY;;LION;49;14500;7200;192;1;90;90;8400;3000;4062;4061;1;13008;26.64;28.04;30,6;BCS1388054;5;4
009594;13.01.2021;08:31:10;Stop          ;03.12.2018;FEY;;LION;49;14500;7200;224;2;98;100;8400;;4156;4155;1;13008;26.34;28.14;31,1;BCS1388054;5;4
009594;21.02.2021;13:45:29;Normalcharge  ;03.12.2018;FEY;;LION;49;14500;7200;224;2;97;99;8400;;4131;4131;1;13003;22.34;22.84;27,8;BCS1388054;6;7

Note: reader/backup_20210408/Batterieverzeichnis/009663.txt
009663;29.11.2020;04:36:38;Cycle         ;03.12.2018;FEY;;LION;49;14500;7200;16576;3;88;100;;;4165;4166;1;13007;23.04;21.64;27,9;BCS1388054;4;17
009663;01.12.2020;07:00:16;Cycle         ;03.12.2018;FEY;;LION;49;14500;7200;16576;3;88;100;;;4161;4163;1;13009;25.34;26.34;26,7;BCS1388054;1;3
009663;01.12.2020;11:17:17;Stop          ;03.12.2018;FEY;;LION;49;14500;7200;16576;3;88;100;;;4161;4163;1;13003;26.64;29.14;28,8;BCS1388054;1;3
009663;07.02.2021;08:46:48;Normalcharge  ;03.12.2018;FEY;;LION;49;14500;7200;16576;3;86;97;;;4129;4129;1;13002;23.54;26.04;29,2;BCS1388054;2;1
009663;07.02.2021;11:52:12;Stop          ;03.12.2018;FEY;;LION;49;14500;7200;16576;3;86;97;;;4129;4130;1;13002;25.74;27.44;29,7;BCS1388054;2;1
009663;03.03.2021;08:17:08;Normalcharge  ;03.12.2018;FEY;;LION;49;14500;7200;16576;3;85;97;;;4121;4121;1;13022;23.04;22.94;23,5;BCS1388054;1;16
009663;04.03.2021;07:53:51;Stop          ;03.12.2018;FEY;;LION;49;14500;7200;16576;3;85;97;;;4120;4121;1;13015;25.94;27.24;31,6;BCS1388054;1;16
009663;04.04.2021;11:50:28;Normalcharge  ;03.12.2018;FEY;;LION;49;14500;7200;16576;3;85;96;;;4112;4112;1;13008;24.94;25.94;27,9;BCS1388054;3;5
009663;04.04.2021;11:51:43;Stop           ;03.12.2018;FEY;;LION;49;14500;7200;16576;3;85;96;;;4111;4112;1;12799;24.94;26.14;28,6;BCS1388054;3;5

Note: reader/backup_20210408/Batterieverzeichnis/009670.txt
009670;29.11.2020;04:33:37;Cycle          ;04.12.2018;FEY;;LION;49;14500;7200;192;1;95;96;8400;;4118;4118;1;13016;23.04;23.84;27,4;BCS1388054;3;17
009670;12.01.2021;04:17:28;Ladung auf 90% ;04.12.2018;FEY;;LION;49;14500;7200;192;1;94;95;8400;3000;4103;4102;1;13005;23.04;23.84;23,6;BCS1388054;3;1
009670;12.01.2021;04:57:30;Stop           ;04.12.2018;FEY;;LION;49;14500;7200;192;1;90;90;8400;3000;4054;4053;1;13000;26.64;30.54;31,5;BCS1388054;3;1
009670;12.01.2021;05:21:45;Cycle          ;04.12.2018;FEY;;LION;49;14500;7200;192;1;90;90;8400;3000;4056;4055;1;13000;27.04;28.94;30,4;BCS1388054;3;1
009670;13.01.2021;08:23:25;Stop           ;04.12.2018;FEY;;LION;49;14500;7200;224;3;96;100;8400;;4156;4157;1;12999;27.04;28.84;31,4;BCS1388054;3;1
009670;21.02.2021;13:43:48;Normalcharge  ;04.12.2018;FEY;;LION;49;14500;7200;192;3;43;45;8400;3000;3625;3625;1;13017;22.94;23.34;27,7;BCS1388054;3;3
009670;21.02.2021;20:44:52;Stop           ;04.12.2018;FEY;;LION;49;14500;7200;224;3;98;100;8400;;4156;4156;1;13013;26.74;28.14;31,2;BCS1388054;3;3

Note: reader/backup_20210408/Batterieverzeichnis/009707.txt
Serialnumber ; Date ; Time ; Action ; Date of Manufacture ; Manufacturer ; Battery Name ; Device-Chemistry ; Specification-Info ; Design-Capacity [mAh] ; Design-Voltage [mV] ; Battery Status ; Cycle Count ; SOC [%] ; Relativ SOC[%] ; Desired Voltage [mV]; Desired Current [mA]; Cell Voltage 1 [mV] ; Cell Voltage 2 [mV] ; Max_Error [%] ; Busvoltage[mV] ; Battery Temperature [°C] ; Charger Temperature [°C] ; Batterysystem ; Case ; PLace
009707;07.12.2020;04:14:40;Cycle         ;04.12.2018;FEY;;LION;49;14500;7200;192;1;93;93;8400;3000;4082;4083;1;13024;25.44;26.74;30,3;BCS1388054;7;16
009707;08.12.2020;16:20:20;Stop          ;04.12.2018;FEY;;LION;49;14500;7200;224;2;98;100;8400;;4153;4153;1;13024;27.44;28.04;31,9;BCS1388054;7;16
009707;21.02.2021;13:43:19;Normalcharge  ;04.12.2018;FEY;;LION;49;14500;7200;192;2;80;83;8400;3000;3970;3970;1;12996;23.44;26.44;27,5;BCS1388054;1;8
009707;22.02.2021;17:08:49;Stop          ;04.12.2018;FEY;;LION;49;14500;7200;224;2;97;100;8400;;4149;4149;1;12996;26.14;28.34;30,0;BCS1388054;1;8

Note: reader/backup_20210408/Batterieverzeichnis/009710.txt
Serialnumber ; Date ; Time ; Action ; Date of Manufacture ; Manufacturer ; Battery Name ; Device-Chemistry ; Specification-Info ; Design-Capacity [mAh] ; Design-Voltage [mV] ; Battery Status ; Cycle Count ; SOC [%] ; Relativ SOC[%] ; Desired Voltage [mV]; Desired Current [mA]; Cell Voltage 1 [mV] ; Cell Voltage 2 [mV] ; Max_Error [%] ; Busvoltage[mV] ; Battery Temperature [°C] ; Charger Temperature [°C] ; Batterysystem ; Case ; PLace
009710;07.12.2020;04:14:40;Cycle         ;04.12.2018;FEY;;LION;49;14500;7200;192;2;97;96;8400;;4120;4120;1;13016;25.84;27.54;30,3;BCS1388054;7;10
009710;08.12.2020;16:20:20;Stop          ;04.12.2018;FEY;;LION;49;14500;7200;192;2;98;96;8400;;4118;4118;1;13017;27.74;28.84;31,9;BCS1388054;7;10
009710;12.01.2021;04:17:47;Charge to 90% ;04.12.2018;FEY;;LION;49;14500;7200;192;3;91;89;8400;3000;4046;4046;1;13014;23.24;23.64;23,8;BCS1388054;7;9
009710;12.01.2021;04:57:20;Stop          ;04.12.2018;FEY;;LION;49;14500;7200;192;3;91;90;8400;3000;4047;4047;1;13009;25.64;28.54;31,5;BCS1388054;7;9
009710;12.01.2021;05:22:01;Cycle         ;04.12.2018;FEY;;LION;49;14500;7200;192;3;91;90;8400;3000;4047;4047;1;13009;26.44;27.24;30,4;BCS1388054;7;9
009710;13.01.2021;08:19:29;Stop          ;04.12.2018;FEY;;LION;49;14500;7200;224;4;98;100;8400;;4155;4156;1;13011;26.84;27.34;30,7;BCS1388054;7;9
009710;21.02.2021;13:45:29;Normalcharge  ;04.12.2018;FEY;;LION;49;14500;7200;192;5;39;40;8400;3000;3599;3599;1;12999;23.04;23.64;27,8;BCS1388054;6;18

File: 001009.txt
Serialnumber ; Date ; Time ; Action ; Date of Manufacture ; Manufacturer ; Battery Name ; Device-Chemistry ; Specification-Info ; Design-Capacity [mAh] ; Design-Voltage [mV] ; Battery Status ; Cycle Count ; SOC [%] ; Relativ SOC[%] ; Desired Voltage [mV]; Desired Current [mA]; Cell Voltage 1 [mV] ; Cell Voltage 2 [mV] ; Max_Error [%] ; Busvoltage[mV] ; Battery Temperature [°C] ; Charger Temperature [°C] ; Batterysystem ; Case ; PLace
001009;13.12.2019;13:53:33;Fastcharge    ;28.11.2017;FEY;;LION;49;14500;7200;192;22;91;96;8400;;4100;4100;1;13020;22.24;34.34;35,8;BCS1388054;7;7
001009;13.12.2019;13:55:00;Stop          ;28.11.2017;FEY;;LION;49;14500;7200;192;22;91;96;8400;;4100;4100;1;12769;22.54;33.34;36,1;BCS1388054;7;7
001009;13.12.2019;13:55:04;Charge to 10% ;28.11.2017;FEY;;LION;49;14500;7200;192;22;91;96;8400;;4100;4100;1;13019;22.54;33.24;36,1;BCS1388054;7;7
001009;13.12.2019;13:55:27;Stop          ;28.11.2017;FEY;;LION;49;14500;7200;192;22;91;96;8400;;4100;4100;1;13385;22.64;33.14;36,1;BCS1388054;7;7
001009;13.12.2019;13:55:29;Fastcharge    ;28.11.2017;FEY;;LION;49;14500;7200;192;22;92;96;8400;;4046;4075;1;13470;22.64;33.24;36,1;BCS1388054;7;7
001009;13.12.2019;13:55:29;Stop          ;28.11.2017;FEY;;LION;49;14500;7200;192;22;92;96;8400;;4046;4075;1;13470;22.64;33.24;36,1;BCS1388054;7;7
001009;13.12.2019;13:55:33;Normalcharge  ;28.11.2017;FEY;;LION;49;14500;7200;192;22;92;96;8400;;4046;4075;1;13266;22.64;33.44;36,1;BCS1388054;7;7
001009;13.12.2019;13:55:39;Fastcharge    ;28.11.2017;FEY;;LION;49;14500;7200;192;22;92;96;8400;;4098;4098;1;13007;22.64;33.54;36,1;BCS1388054;7;7
001009;13.12.2019;13:55:39;Stop          ;28.11.2017;FEY;;LION;49;14500;7200;192;22;92;96;8400;;4098;4098;1;13007;22.64;33.54;36,1;BCS1388054;7;7
001009;13.12.2019;13:56:34;Stop          ;28.11.2017;FEY;;LION;49;14500;7200;192;22;92;96;8400;;4099;4099;1;12755;22.84;32.84;36,2;BCS1388054;7;7
001009;13.12.2019;13:56:38;Charge to 95% ;28.11.2017;FEY;;LION;49;14500;7200;192;22;92;96;8400;;4099;4099;1;13021;22.84;32.84;36,2;BCS1388054;7;7
001009;13.12.2019;13:56:40;Stop          ;28.11.2017;FEY;;LION;49;14500;7200;192;22;92;96;8400;;4100;4099;1;13021;22.84;32.84;36,2;BCS1388054;7;7
001009;13.12.2019;13:56:48;Charge to 90% ;28.11.2017;FEY;;LION;49;14500;7200;192;22;92;96;8400;;4100;4099;1;13020;22.84;32.74;36,2;BCS1388054;7;7
001009;13.12.2019;15:42:54;Stop          ;28.11.2017;FEY;;LION;49;14500;7200;192;22;86;90;8400;3000;4038;4039;1;12971;29.04;31.04;34,5;BCS1388054;7;7
001009;13.12.2019;15:42:59;Fastcharge    ;28.11.2017;FEY;;LION;49;14500;7200;192;22;86;90;8400;3000;4038;4039;1;13021;29.04;31.04;34,4;BCS1388054;7;7
001009;13.12.2019;21:04:43;Stop          ;28.11.2017;FEY;;LION;49;14500;7200;224;22;95;100;8400;;4153;4154;1;13022;26.84;28.44;31,7;BCS1388054;7;7

File: 001074.txt
Serialnumber ; Date ; Time ; Action ; Date of Manufacture ; Manufacturer ; Battery Name ; Device-Chemistry ; Specification-Info ; Design-Capacity [mAh] ; Design-Voltage [mV] ; Battery Status ; Cycle Count ; SOC [%] ; Relativ SOC[%] ; Desired Voltage [mV]; Desired Current [mA]; Cell Voltage 1 [mV] ; Cell Voltage 2 [mV] ; Max_Error [%] ; Busvoltage[mV] ; Battery Temperature [°C] ; Charger Temperature [°C] ; Batterysystem ; Case ; PLace
001074;10.12.2019;15:29:15;Charge to 30% ;15.02.2018;FEY;;LION;49;14500;7200;224;22;92;99;8400;;4123;4122;1;13023;22.34;24.84;27,1;BCS1388054;7;10
001074;10.12.2019;20:46:56;Stop          ;15.02.2018;FEY;;LION;49;14500;7200;192;23;28;30;8400;3000;3559;3560;1;13022;32.34;31.74;33,5;BCS1388054;7;10
001074;11.12.2019;08:49:12;Fastcharge    ;15.02.2018;FEY;;LION;49;14500;7200;192;23;28;30;8400;3000;3567;3567;1;13022;25.84;27.64;31,9;BCS1388054;7;10
001074;11.12.2019;13:38:42;Stop          ;15.02.2018;FEY;;LION;49;14500;7200;224;23;94;100;8400;;4161;4162;1;13022;29.44;29.54;32,7;BCS1388054;7;10
001074;11.12.2019;15:46:56;Charge to 10% ;15.02.2018;FEY;;LION;49;14500;7200;224;23;95;100;8400;;4155;4155;1;13023;26.64;27.74;31,2;BCS1388054;7;10
001074;11.12.2019;22:51:50;Stop          ;15.02.2018;FEY;;LION;49;14500;7200;192;24;10;10;8400;3000;3353;3355;1;13023;32.94;31.54;33,0;BCS1388054;7;10
001074;12.12.2019;08:45:27;Normalcharge  ;15.02.2018;FEY;;LION;49;14500;7200;192;24;9;9;8400;3000;3361;3363;1;13022;26.04;27.64;31,7;BCS1388054;7;10
001074;12.12.2019;16:41:08;Stop          ;15.02.2018;FEY;;LION;49;14500;7200;224;24;95;100;8400;;4160;4160;1;13022;28.64;28.74;31,6;BCS1388054;7;10
001074;13.12.2019;10:48:13;Charge to 10% ;15.02.2018;FEY;;LION;49;14500;7200;224;24;95;100;8400;;4150;4150;1;13023;26.04;27.84;32,0;BCS1388054;7;10
001074;13.12.2019;13:48:48;Stop          ;15.02.2018;FEY;;LION;49;14500;7200;192;24;57;61;8400;3000;3677;3734;1;13536;33.64;38.94;36,8;BCS1388054;7;10
001074;16.12.2019;07:43:27;Charge to 10% ;15.02.2018;FEY;;LION;49;14500;7200;192;24;60;63;8400;3000;3782;3785;1;13005;22.64;27.34;31,7;BCS1388054;6;18
001074;16.12.2019;14:43:10;Stop          ;15.02.2018;FEY;;LION;49;14500;7200;192;25;9;10;8400;3000;3349;3351;1;13005;29.24;30.94;31,7;BCS1388054;6;18
001074;16.12.2019;14:44:21;Charge to 90% ;15.02.2018;FEY;;LION;49;14500;7200;192;25;9;10;8400;3000;3349;3351;1;13003;29.14;30.94;31,9;BCS1388054;6;18
001074;16.12.2019;20:54:26;Stop          ;15.02.2018;FEY;;LION;49;14500;7200;192;25;84;90;8400;3000;4031;4030;1;13005;30.34;31.94;32,1;BCS1388054;6;18
001074;17.12.2019;08:37:58;Fastcharge    ;15.02.2018;FEY;;LION;49;14500;7200;192;25;85;90;8400;3000;4023;4023;1;13004;26.24;28.14;31,6;BCS1388054;6;18
001074;17.12.2019;13:38:40;Charge to 10% ;15.02.2018;FEY;;LION;49;14500;7200;224;25;94;100;8400;;4153;4150;1;13004;26.44;28.24;30,8;BCS1388054;6;18
001074;17.12.2019;20:41:41;Stop          ;15.02.2018;FEY;;LION;49;14500;7200;192;26;10;10;8400;3000;3352;3353;1;13004;32.24;33.84;32,6;BCS1388054;6;18
001074;18.12.2019;08:31:34;Fastcharge    ;15.02.2018;FEY;;LION;49;14500;7200;192;26;9;9;8400;3000;3361;3362;1;13004;26.34;28.24;31,6;BCS1388054;6;18
001074;18.12.2019;14:33:31;Stop          ;15.02.2018;FEY;;LION;49;14500;7200;224;26;92;100;8400;;4160;4158;1;13004;28.84;30.24;31,4;BCS1388054;6;18
001074;19.12.2019;08:24:06;Charge to 60% ;15.02.2018;FEY;;LION;49;14500;7200;224;26;94;100;8400;;4149;4147;1;13004;26.24;28.14;31,5;BCS1388054;6;18
001074;19.12.2019;11:34:24;Stop          ;15.02.2018;FEY;;LION;49;14500;7200;192;27;57;60;8400;3000;3771;3774;1;13003;32.34;33.74;33,5;BCS1388054;6;18
001074;19.12.2019;12:16:53;Cycle         ;15.02.2018;FEY;;LION;49;14500;7200;192;27;57;60;8400;3000;3778;3781;1;13004;29.14;30.44;32,7;BCS1388054;6;18
001074;20.12.2019;17:31:05;Stop          ;15.02.2018;FEY;;LION;49;14500;7200;224;28;92;100;8400;;4154;4153;1;13006;26.44;28.04;30,6;BCS1388054;6;18
001074;06.01.2020;06:34:58;Charge to 60% ;15.02.2018;FEY;;LION;49;14500;7200;192;28;91;98;8400;;4123;4122;1;13005;26.44;28.24;31,9;BCS1388054;6;18
001074;06.01.2020;09:30:42;Stop          ;15.02.2018;FEY;;LION;49;14500;7200;192;28;56;60;8400;3000;3767;3770;1;13005;31.94;34.24;33,7;BCS1388054;6;18
001074;06.01.2020;09:50:46;Fastcharge    ;15.02.2018;FEY;;LION;49;14500;7200;192;28;56;60;8400;3000;3775;3779;1;13005;30.14;31.04;32,7;BCS1388054;6;18
001074;06.01.2020;13:06:22;Stop          ;15.02.2018;FEY;;LION;49;14500;7200;224;28;93;100;8400;;4162;4161;1;13006;28.64;30.44;32,1;BCS1388054;6;18

File: 001099.txt
Serialnumber ; Date ; Time ; Action ; Date of Manufacture ; Manufacturer ; Battery Name ; Device-Chemistry ; Specification-Info ; Design-Capacity [mAh] ; Design-Voltage [mV] ; Battery Status ; Cycle Count ; SOC [%] ; Relativ SOC[%] ; Desired Voltage [mV]; Desired Current [mA]; Cell Voltage 1 [mV] ; Cell Voltage 2 [mV] ; Max_Error [%] ; Busvoltage[mV] ; Battery Temperature [°C] ; Charger Temperature [°C] ; Batterysystem ; Case ; PLace
001099;10.12.2019;15:29:15;Charge to 30% ;15.02.2018;FEY;;LION;49;14500;7200;224;23;93;99;8400;;4123;4122;1;13015;22.74;24.64;27,1;BCS1388054;7;9
001099;10.12.2019;20:46:56;Stop          ;15.02.2018;FEY;;LION;49;14500;7200;192;24;29;30;8400;3000;3557;3557;1;13012;33.24;31.64;33,5;BCS1388054;7;9
001099;11.12.2019;08:49:12;Fastcharge    ;15.02.2018;FEY;;LION;49;14500;7200;192;24;29;30;8400;3000;3566;3566;1;13013;26.34;27.44;31,9;BCS1388054;7;9
001099;11.12.2019;13:38:42;Stop          ;15.02.2018;FEY;;LION;49;14500;7200;224;24;95;100;8400;;4163;4164;1;13013;30.44;29.34;32,7;BCS1388054;7;9
001099;11.12.2019;15:46:56;Charge to 10% ;15.02.2018;FEY;;LION;49;14500;7200;224;24;96;100;8400;;4156;4157;1;13013;27.24;27.64;31,2;BCS1388054;7;9
001099;11.12.2019;22:51:50;Stop          ;15.02.2018;FEY;;LION;49;14500;7200;192;25;10;10;8400;3000;3353;3354;1;13012;34.14;31.44;33,0;BCS1388054;7;9
001099;12.12.2019;08:45:27;Normalcharge  ;15.02.2018;FEY;;LION;49;14500;7200;192;25;9;9;8400;3000;3362;3362;1;13013;26.54;27.44;31,7;BCS1388054;7;9
001099;12.12.2019;16:41:08;Stop          ;15.02.2018;FEY;;LION;49;14500;7200;224;25;96;100;8400;;4161;4161;1;13012;29.44;28.64;31,6;BCS1388054;7;9
001099;13.12.2019;10:48:13;Charge to 10% ;15.02.2018;FEY;;LION;49;14500;7200;224;25;96;100;8400;;4150;4151;1;13013;26.54;27.64;32,0;BCS1388054;7;9
001099;13.12.2019;13:48:48;Stop          ;15.02.2018;FEY;;LION;49;14500;7200;192;26;58;61;8400;3000;3684;3735;1;13520;34.34;38.34;36,8;BCS1388054;7;9
001099;16.12.2019;07:43:27;Charge to 10% ;15.02.2018;FEY;;LION;49;14500;7200;192;26;60;63;8400;3000;3785;3787;1;13024;23.04;28.34;31,7;BCS1388054;6;15
001099;16.12.2019;14:43:10;Stop          ;15.02.2018;FEY;;LION;49;14500;7200;192;26;10;10;8400;3000;3359;3360;1;13021;30.34;32.54;31,7;BCS1388054;6;15
001099;16.12.2019;14:44:21;Charge to 90% ;15.02.2018;FEY;;LION;49;14500;7200;192;26;10;10;8400;3000;3359;3360;1;13022;30.34;32.34;31,9;BCS1388054;6;15
001099;16.12.2019;20:54:26;Stop          ;15.02.2018;FEY;;LION;49;14500;7200;192;26;84;90;8400;3000;4031;4030;1;13023;32.34;33.24;32,1;BCS1388054;6;15
001099;17.12.2019;08:37:58;Fastcharge    ;15.02.2018;FEY;;LION;49;14500;7200;192;26;84;90;8400;3000;4024;4023;1;13022;26.74;28.94;31,6;BCS1388054;6;15
001099;17.12.2019;13:38:40;Charge to 10% ;15.02.2018;FEY;;LION;49;14500;7200;224;26;94;100;8400;;4153;4151;1;13022;27.14;29.14;30,8;BCS1388054;6;15
001099;17.12.2019;20:41:41;Stop          ;15.02.2018;FEY;;LION;49;14500;7200;192;27;10;10;8400;3000;3355;3354;1;13022;34.74;35.34;32,6;BCS1388054;6;15
001099;18.12.2019;08:31:34;Fastcharge    ;15.02.2018;FEY;;LION;49;14500;7200;192;27;9;10;8400;3000;3364;3364;1;13022;26.84;29.14;31,6;BCS1388054;6;15
001099;18.12.2019;14:33:31;Stop          ;15.02.2018;FEY;;LION;49;14500;7200;224;27;94;100;8400;;4161;4159;1;13023;30.74;31.14;31,4;BCS1388054;6;15
001099;19.12.2019;08:24:06;Charge to 60% ;15.02.2018;FEY;;LION;49;14500;7200;224;27;95;100;8400;;4151;4149;1;13022;26.84;29.04;31,5;BCS1388054;6;15
001099;19.12.2019;11:34:24;Stop          ;15.02.2018;FEY;;LION;49;14500;7200;192;28;58;60;8400;3000;3769;3769;1;13021;34.24;35.04;33,5;BCS1388054;6;15
001099;19.12.2019;12:16:53;Cycle         ;15.02.2018;FEY;;LION;49;14500;7200;192;28;58;60;8400;3000;3777;3778;1;13022;31.14;31.34;32,7;BCS1388054;6;15
001099;20.12.2019;17:31:05;Stop          ;15.02.2018;FEY;;LION;49;14500;7200;224;29;94;100;8400;;4154;4152;1;13024;27.24;28.94;30,6;BCS1388054;6;15
001099;06.01.2020;06:34:58;Charge to 60% ;15.02.2018;FEY;;LION;49;14500;7200;192;29;93;98;8400;;4123;4122;1;13023;27.04;29.24;31,9;BCS1388054;6;15
001099;06.01.2020;09:30:42;Stop          ;15.02.2018;FEY;;LION;49;14500;7200;192;30;57;60;8400;3000;3767;3767;1;13022;33.64;36.44;33,7;BCS1388054;6;15
001099;06.01.2020;09:50:46;Fastcharge    ;15.02.2018;FEY;;LION;49;14500;7200;192;30;57;60;8400;3000;3776;3777;1;13024;32.14;32.04;32,7;BCS1388054;6;15
001099;06.01.2020;13:06:22;Stop          ;15.02.2018;FEY;;LION;49;14500;7200;224;30;95;100;8400;;4162;4161;1;13023;30.54;31.34;32,1;BCS1388054;6;15

File: 009541.txt
Serialnumber ; Date ; Time ; Action ; Date of Manufacture ; Manufacturer ; Battery Name ; Device-Chemistry ; Specification-Info ; Design-Capacity [mAh] ; Design-Voltage [mV] ; Battery Status ; Cycle Count ; SOC [%] ; Relativ SOC[%] ; Desired Voltage [mV]; Desired Current [mA]; Cell Voltage 1 [mV] ; Cell Voltage 2 [mV] ; Max_Error [%] ; Busvoltage[mV] ; Battery Temperature [°C] ; Charger Temperature [°C] ; Batterysystem ; Case ; PLace
009541;10.12.2019;15:29:01;Charge to 30% ;04.12.2018;FEY;;LION;49;14500;7200;224;48;93;99;8400;;4129;4129;1;13017;22.84;25.44;27,1;BCS1388054;5;15
009541;10.12.2019;20:48:54;Stop          ;04.12.2018;FEY;;LION;49;14500;7200;192;48;29;30;8400;3000;3560;3562;1;13012;34.04;35.64;33,1;BCS1388054;5;15
009541;11.12.2019;08:48:53;Fastcharge    ;04.12.2018;FEY;;LION;49;14500;7200;192;48;29;30;8400;3000;3568;3570;1;13013;26.84;29.44;31,9;BCS1388054;5;15
009541;11.12.2019;13:40:11;Stop          ;04.12.2018;FEY;;LION;49;14500;7200;224;48;95;100;8400;;4162;4162;1;13013;30.94;32.44;32,4;BCS1388054;5;15
009541;11.12.2019;15:46:40;Charge to 10% ;04.12.2018;FEY;;LION;49;14500;7200;224;48;96;100;8400;;4153;4153;1;13013;27.74;29.84;31,4;BCS1388054;5;15
009541;11.12.2019;22:49:07;Stop          ;04.12.2018;FEY;;LION;49;14500;7200;192;50;10;10;8400;3000;3357;3359;1;13012;34.94;36.34;33,5;BCS1388054;5;15
009541;12.12.2019;08:45:10;Normalcharge  ;04.12.2018;FEY;;LION;49;14500;7200;192;50;9;10;8400;3000;3366;3368;1;13013;27.04;29.54;31,7;BCS1388054;5;15
009541;12.12.2019;16:41:20;Stop          ;04.12.2018;FEY;;LION;49;14500;7200;224;50;96;100;8400;;4160;4162;1;13013;29.94;31.54;31,6;BCS1388054;5;15
009541;13.12.2019;10:48:05;Charge to 10% ;04.12.2018;FEY;;LION;49;14500;7200;224;50;96;100;8400;;4148;4150;1;13013;27.04;29.64;32,0;BCS1388054;5;15
009541;13.12.2019;15:40:55;Stop          ;04.12.2018;FEY;;LION;49;14500;7200;192;50;35;37;8400;3000;3501;3555;1;13524;33.84;41.54;34,6;BCS1388054;5;15
009541;13.12.2019;15:41:42;Cycle         ;04.12.2018;FEY;;LION;49;14500;7200;192;50;35;37;8400;3000;3582;3585;1;13012;33.84;39.14;34,5;BCS1388054;5;15
009541;14.12.2019;22:39:35;Stop          ;04.12.2018;FEY;;LION;49;14500;7200;224;52;93;99;8400;;4151;4152;1;13014;27.14;29.44;31,7;BCS1388054;5;15
009541;16.12.2019;07:43:20;Charge to 10% ;04.12.2018;FEY;;LION;49;14500;7200;224;52;94;100;8400;;4145;4145;1;13014;26.84;28.84;31,9;BCS1388054;5;15
009541;16.12.2019;14:34:29;Stop          ;04.12.2018;FEY;;LION;49;14500;7200;192;53;10;10;8400;3000;3362;3365;1;13013;33.34;35.64;32,5;BCS1388054;5;15
009541;16.12.2019;14:44:17;Charge to 90% ;04.12.2018;FEY;;LION;49;14500;7200;192;53;10;10;8400;3000;3366;3368;1;13012;32.54;32.54;31,9;BCS1388054;5;15
009541;16.12.2019;20:48:55;Stop          ;04.12.2018;FEY;;LION;49;14500;7200;192;53;84;90;8400;3000;4057;4059;1;13014;32.74;35.04;31,9;BCS1388054;5;15
009541;17.12.2019;08:37:54;Fastcharge    ;04.12.2018;FEY;;LION;49;14500;7200;192;53;84;90;8400;3000;4045;4047;1;13013;26.94;29.34;31,6;BCS1388054;5;15
009541;17.12.2019;10:33:46;Stop          ;04.12.2018;FEY;;LION;49;14500;7200;224;53;95;100;8400;;4160;4160;1;13013;28.74;30.84;31,1;BCS1388054;5;15
009541;17.12.2019;10:33:46;Stop          ;04.12.2018;FEY;;LION;49;14500;7200;224;53;95;100;8400;;4160;4160;1;13013;28.74;30.84;31,1;BCS1388054;5;15
009541;17.12.2019;13:38:36;Charge to 10% ;04.12.2018;FEY;;LION;49;14500;7200;224;53;95;100;8400;;4150;4151;1;13014;27.24;29.34;30,8;BCS1388054;5;15
009541;17.12.2019;20:33:18;Stop          ;04.12.2018;FEY;;LION;49;14500;7200;192;54;10;10;8400;3000;3361;3364;1;13012;35.04;36.84;34,5;BCS1388054;5;15
009541;18.12.2019;08:31:30;Fastcharge    ;04.12.2018;FEY;;LION;49;14500;7200;192;54;10;10;8400;3000;3372;3374;1;13013;27.04;29.54;31,6;BCS1388054;5;15
009541;18.12.2019;14:29:28;Stop          ;04.12.2018;FEY;;LION;49;14500;7200;224;54;95;100;8400;;4161;4161;1;13013;30.94;32.04;31,7;BCS1388054;5;15
009541;19.12.2019;08:24:02;Charge to 60% ;04.12.2018;FEY;;LION;49;14500;7200;224;54;96;100;8400;;4148;4149;1;13013;26.94;29.44;31,5;BCS1388054;5;15
009541;19.12.2019;11:31:09;Stop          ;04.12.2018;FEY;;LION;49;14500;7200;192;54;58;60;8400;3000;3763;3768;1;13012;34.54;36.94;34,4;BCS1388054;5;15
009541;19.12.2019;12:16:49;Cycle         ;04.12.2018;FEY;;LION;49;14500;7200;192;54;58;60;8400;3000;3773;3778;1;13013;31.24;31.94;32,7;BCS1388054;5;15
009541;20.12.2019;17:27:50;Stop          ;04.12.2018;FEY;;LION;49;14500;7200;224;56;94;100;8400;;4151;4153;1;13013;27.44;29.54;31,0;BCS1388054;5;15
009541;06.01.2020;06:34:55;Charge to 60% ;04.12.2018;FEY;;LION;49;14500;7200;192;56;92;98;8400;;4122;4123;1;13014;27.24;29.64;31,9;BCS1388054;5;15
009541;06.01.2020;09:30:26;Stop          ;04.12.2018;FEY;;LION;49;14500;7200;192;56;57;60;8400;3000;3768;3773;1;13013;33.74;36.44;33,9;BCS1388054;5;15
009541;06.01.2020;09:50:42;Fastcharge    ;04.12.2018;FEY;;LION;49;14500;7200;192;56;57;60;8400;3000;3776;3782;1;13014;32.24;32.54;32,7;BCS1388054;5;15
009541;06.01.2020;13:09:56;Stop          ;04.12.2018;FEY;;LION;49;14500;7200;224;56;94;100;8400;;4159;4161;1;13014;30.34;31.54;31,4;BCS1388054;5;15