Folder: Battery_sort_V2/reader/backup_20210408/Batterieverzeichnis_new (part 2)

File: 001076.txt
Serialnumber ; Date ; Time ; Action ; Date of Manufacture ; Manufacturer ; Battery Name ; Device-Chemistry ; Specification-Info ; Design-Capacity [mAh] ; Design-Voltage [mV] ; Battery Status ; Cycle Count ; SOC [%] ; Relativ SOC[%] ; Desired Voltage [mV]; Desired Current [mA]; Cell Voltage 1 [mV] ; Cell Voltage 2 [mV] ; Max_Error [%] ; Busvoltage[mV] ; Battery Temperature [°C] ; Charger Temperature [°C] ; Batterysystem ; Case ; PLace
001076;10.12.2019;15:29:15;Charge to 30% ;15.02.2018;FEY;;LION;49;14500;7200;224;23;95;99;8400;;4123;4123;1;13030;22.54;24.64;27,1;BCS1388054;7;2
001076;10.12.2019;20:46:56;Stop          ;15.02.2018;FEY;;LION;49;14500;7200;192;24;29;30;8400;3000;3473;3522;1;13030;32.34;36.24;33,5;BCS1388054;7;2
001076;11.12.2019;08:49:12;Fastcharge    ;15.02.2018;FEY;;LION;49;14500;7200;192;24;29;30;8400;3000;3566;3566;1;13030;26.04;27.94;31,9;BCS1388054;7;2
001076;11.12.2019;13:38:42;Stop          ;15.02.2018;FEY;;LION;49;14500;7200;224;24;96;100;8400;;4164;4164;1;13030;29.24;30.04;32,7;BCS1388054;7;2
001076;11.12.2019;15:46:56;Charge to 10% ;15.02.2018;FEY;;LION;49;14500;7200;224;24;98;100;8400;;4155;4155;1;13030;26.74;28.24;31,2;BCS1388054;7;2
001076;11.12.2019;22:51:50;Stop          ;15.02.2018;FEY;;LION;49;14500;7200;192;25;10;10;8400;3000;3338;3339;1;13030;33.14;35.84;33,0;BCS1388054;7;2
001076;12.12.2019;08:45:27;Normalcharge  ;15.02.2018;FEY;;LION;49;14500;7200;192;25;9;9;8400;3000;3360;3361;1;13031;26.24;28.14;31,7;BCS1388054;7;2
001076;12.12.2019;16:41:08;Stop          ;15.02.2018;FEY;;LION;49;14500;7200;224;25;97;100;8400;;4165;4166;1;13030;28.54;29.84;31,6;BCS1388054;7;2
001076;13.12.2019;10:48:13;Charge to 10% ;15.02.2018;FEY;;LION;49;14500;7200;224;25;97;100;8400;;4151;4151;1;13031;26.24;28.24;32,0;BCS1388054;7;2
001076;13.12.2019;13:48:48;Stop          ;15.02.2018;FEY;;LION;49;14500;7200;192;25;60;62;8400;3000;3694;3743;1;13523;33.44;39.24;36,8;BCS1388054;7;2
001076;16.12.2019;07:43:34;Charge to 10% ;15.02.2018;FEY;;LION;49;14500;7200;192;25;62;64;8400;3000;3793;3794;1;13031;22.94;24.54;31,7;BCS1388054;7;6
001076;16.12.2019;11:52:34;Stop          ;15.02.2018;FEY;;LION;49;14500;7200;192;26;10;10;8400;3000;3232;3283;1;13029;31.74;31.84;34,7;BCS1388054;7;6
001076;16.12.2019;14:44:25;Charge to 90% ;15.02.2018;FEY;;LION;49;14500;7200;192;26;10;10;8400;3000;3348;3349;1;13029;28.34;27.24;31,7;BCS1388054;7;6
001076;16.12.2019;20:53:58;Stop          ;15.02.2018;FEY;;LION;49;14500;7200;128;26;86;90;8400;3000;4123;4075;1;13030;30.14;30.24;32,1;BCS1388054;7;6
001076;17.12.2019;08:38:01;Fastcharge    ;15.02.2018;FEY;;LION;49;14500;7200;192;26;86;90;8400;3000;4023;4022;1;13030;25.94;25.94;31,6;BCS1388054;7;6
001076;17.12.2019;10:36:25;Stop          ;15.02.2018;FEY;;LION;49;14500;7200;224;26;96;100;8400;;4161;4161;1;13030;27.14;26.64;31,5;BCS1388054;7;6
001076;17.12.2019;13:38:44;Charge to 10% ;15.02.2018;FEY;;LION;49;14500;7200;224;26;96;100;8400;;4152;4152;1;13030;26.14;25.94;30,8;BCS1388054;7;6
001076;17.12.2019;20:42:03;Stop          ;15.02.2018;FEY;;LION;49;14500;7200;192;27;10;10;8400;3000;3250;3300;1;13029;32.04;31.04;32,6;BCS1388054;7;6
001076;18.12.2019;08:31:43;Fastcharge    ;15.02.2018;FEY;;LION;49;14500;7200;192;27;9;9;8400;3000;3360;3361;1;13030;26.04;25.84;31,6;BCS1388054;7;6
001076;18.12.2019;14:30:48;Stop          ;15.02.2018;FEY;;LION;49;14500;7200;224;27;95;100;8400;;4165;4165;1;13031;28.34;27.14;31,6;BCS1388054;7;6
001076;19.12.2019;08:24:17;Charge to 60% ;15.02.2018;FEY;;LION;49;14500;7200;224;27;96;100;8400;;4150;4150;1;13030;25.94;26.04;31,6;BCS1388054;7;6
001076;19.12.2019;11:28:26;Stop          ;15.02.2018;FEY;;LION;49;14500;7200;192;28;58;60;8400;3000;3681;3730;1;13028;32.14;32.44;35,1;BCS1388054;7;6
001076;19.12.2019;12:16:57;Cycle         ;15.02.2018;FEY;;LION;49;14500;7200;192;28;58;60;8400;3000;3781;3782;1;13030;28.74;27.34;32,7;BCS1388054;7;6
001076;20.12.2019;17:22:28;Stop          ;15.02.2018;FEY;;LION;49;14500;7200;224;29;95;100;8400;;4154;4154;1;13030;26.14;26.14;31,9;BCS1388054;7;6
001076;06.01.2020;06:35:02;Charge to 60% ;15.02.2018;FEY;;LION;49;14500;7200;192;29;94;98;8400;;4123;4123;1;13031;26.04;25.94;31,9;BCS1388054;7;6
001076;06.01.2020;09:29:52;Stop          ;15.02.2018;FEY;;LION;49;14500;7200;192;29;57;60;8400;3000;3754;3753;1;13030;31.34;31.24;34,0;BCS1388054;7;6
001076;06.01.2020;09:50:50;Fastcharge    ;15.02.2018;FEY;;LION;49;14500;7200;192;29;57;60;8400;3000;3776;3777;1;13031;29.84;27.94;32,7;BCS1388054;7;6
001076;06.01.2020;13:05:11;Stop          ;15.02.2018;FEY;;LION;49;14500;7200;224;29;96;100;8400;;4162;4162;1;13031;27.94;26.94;32,4;BCS1388054;7;6

File: 007650.txt
Serialnumber ; Date ; Time ; Action ; Date of Manufacture ; Manufacturer ; Battery Name ; Device-Chemistry ; Specification-Info ; Design-Capacity [mAh] ; Design-Voltage [mV] ; Battery Status ; Cycle Count ; SOC [%] ; Relativ SOC[%] ; Desired Voltage [mV]; Desired Current [mA]; Cell Voltage 1 [mV] ; Cell Voltage 2 [mV] ; Max_Error [%] ; Busvoltage[mV] ; Battery Temperature [°C] ; Charger Temperature [°C] ; Batterysystem ; Case ; PLace
007650;13.12.2019;13:53:33;Fastcharge    ;19.10.2017;FEY;;LION;49;14500;7200;192;7;81;86;8400;3000;3989;3989;1;13030;22.84;33.14;35,8;BCS1388054;7;4
007650;13.12.2019;13:55:00;Stop          ;19.10.2017;FEY;;LION;49;14500;7200;128;7;81;86;8400;3000;4084;4039;1;12760;23.24;34.94;36,1;BCS1388054;7;4
007650;13.12.2019;13:55:04;Charge to 10% ;19.10.2017;FEY;;LION;49;14500;7200;128;7;81;86;8400;3000;4084;4039;1;13030;23.34;35.04;36,1;BCS1388054;7;4
007650;13.12.2019;13:55:27;Stop          ;19.10.2017;FEY;;LION;49;14500;7200;128;7;81;86;8400;3000;4000;4000;1;13374;23.44;33.64;36,1;BCS1388054;7;4
007650;13.12.2019;13:55:29;Fastcharge    ;19.10.2017;FEY;;LION;49;14500;7200;192;7;81;86;8400;3000;3954;3978;1;13449;23.44;33.64;36,1;BCS1388054;7;4
007650;13.12.2019;13:55:29;Stop          ;19.10.2017;FEY;;LION;49;14500;7200;192;7;81;86;8400;3000;3954;3978;1;13449;23.44;33.64;36,1;BCS1388054;7;4
007650;13.12.2019;13:55:33;Normalcharge  ;19.10.2017;FEY;;LION;49;14500;7200;192;7;81;86;8400;3000;3954;3978;1;13340;23.44;33.64;36,1;BCS1388054;7;4
007650;13.12.2019;13:55:39;Fastcharge    ;19.10.2017;FEY;;LION;49;14500;7200;192;7;81;86;8400;3000;3996;3995;1;13019;23.44;33.64;36,1;BCS1388054;7;4
007650;13.12.2019;13:55:39;Stop          ;19.10.2017;FEY;;LION;49;14500;7200;192;7;81;86;8400;3000;3996;3995;1;13019;23.44;33.64;36,1;BCS1388054;7;4
007650;13.12.2019;13:56:34;Stop          ;19.10.2017;FEY;;LION;49;14500;7200;128;7;81;86;8400;3000;4081;4040;1;12744;23.74;34.54;36,2;BCS1388054;7;4
007650;13.12.2019;13:56:38;Charge to 95% ;19.10.2017;FEY;;LION;49;14500;7200;128;7;81;86;8400;3000;4081;4040;1;13030;23.74;34.54;36,2;BCS1388054;7;4
007650;13.12.2019;13:56:40;Stop          ;19.10.2017;FEY;;LION;49;14500;7200;128;7;81;86;8400;3000;4081;4040;1;13030;23.74;34.54;36,2;BCS1388054;7;4
007650;13.12.2019;13:56:48;Charge to 90% ;19.10.2017;FEY;;LION;49;14500;7200;128;7;81;86;8400;3000;4005;4007;1;13031;23.74;34.14;36,2;BCS1388054;7;4
007650;13.12.2019;15:42:54;Stop          ;19.10.2017;FEY;;LION;49;14500;7200;192;7;85;90;8400;3000;4039;4038;1;12974;29.54;30.54;34,5;BCS1388054;7;4
007650;13.12.2019;15:42:59;Fastcharge    ;19.10.2017;FEY;;LION;49;14500;7200;192;7;85;90;8400;3000;4039;4038;1;13031;29.54;30.54;34,4;BCS1388054;7;4
007650;13.12.2019;21:04:43;Stop          ;19.10.2017;FEY;;LION;49;14500;7200;224;7;95;100;8400;;4151;4150;1;13032;27.54;27.74;31,7;BCS1388054;7;4

File: 009511.txt
Serialnumber ; Date ; Time ; Action ; Date of Manufacture ; Manufacturer ; Battery Name ; Device-Chemistry ; Specification-Info ; Design-Capacity [mAh] ; Design-Voltage [mV] ; Battery Status ; Cycle Count ; SOC [%] ; Relativ SOC[%] ; Desired Voltage [mV]; Desired Current [mA]; Cell Voltage 1 [mV] ; Cell Voltage 2 [mV] ; Max_Error [%] ; Busvoltage[mV] ; Battery Temperature [°C] ; Charger Temperature [°C] ; Batterysystem ; Case ; PLace
009511;07.12.2020;04:14:36;Cycle         ;04.12.2018;FEY;;LION;49;14500;7200;192;2;98;98;8400;;4141;4143;1;12994;25.94;26.14;30,3;BCS1388054;6;6
009511;08.12.2020;16:20:13;Stop          ;04.12.2018;FEY;;LION;49;14500;7200;192;2;98;98;8400;;4139;4141;1;12994;27.84;27.54;31,9;BCS1388054;6;6
009511;12.01.2021;04:17:36;Charge to 90% ;04.12.2018;FEY;;LION;49;14500;7200;192;2;96;97;8400;;4125;4127;1;13010;23.34;23.64;23,6;BCS1388054;5;12
009511;12.01.2021;05:15:37;Stop          ;04.12.2018;FEY;;LION;49;14500;7200;192;2;90;90;8400;3000;4062;4063;1;13003;27.74;27.74;31,6;BCS1388054;5;12
009511;12.01.2021;05:21:53;Cycle         ;04.12.2018;FEY;;LION;49;14500;7200;192;2;90;90;8400;3000;4063;4063;1;13004;27.44;27.24;30,6;BCS1388054;5;12
009511;13.01.2021;08:31:10;Stop          ;04.12.2018;FEY;;LION;49;14500;7200;224;3;97;100;8400;;4155;4157;1;13003;27.14;27.24;31,1;BCS1388054;5;12
009511;21.02.2021;13:44:56;Normalcharge  ;04.12.2018;FEY;;LION;49;14500;7200;192;4;54;56;8400;3000;3706;3705;1;13005;23.24;22.54;27,7;BCS1388054;5;6
009511;21.02.2021;19:31:36;Stop          ;04.12.2018;FEY;;LION;49;14500;7200;224;4;98;100;8400;;4154;4156;1;13002;26.94;26.24;30,6;BCS1388054;5;6
009511;06.04.2021;08:39:03;Normalcharge  ;04.12.2018;FEY;;LION;49;14500;7200;224;4;96;99;8400;;4128;4129;1;13020;21.04;25.54;28,1;BCS1388054;4;16
009511;06.04.2021;08:39:53;Stop          ;04.12.2018;FEY;;LION;49;14500;7200;224;4;96;99;8400;;4129;4130;1;13018;21.04;25.74;28,4;BCS1388054;4;16

File: 009513.txt
Serialnumber ; Date ; Time ; Action ; Date of Manufacture ; Manufacturer ; Battery Name ; Device-Chemistry ; Specification-Info ; Design-Capacity [mAh] ; Design-Voltage [mV] ; Battery Status ; Cycle Count ; SOC [%] ; Relativ SOC[%] ; Desired Voltage [mV]; Desired Current [mA]; Cell Voltage 1 [mV] ; Cell Voltage 2 [mV] ; Max_Error [%] ; Busvoltage[mV] ; Battery Temperature [°C] ; Charger Temperature [°C] ; Batterysystem ; Case ; PLace
009513;07.12.2020;04:14:17;Cycle         ;04.12.2018;FEY;;LION;49;14500;7200;16576;2;99;99;;;4153;4153;1;12990;25.64;26.44;30,3;BCS1388054;1;11
009513;08.12.2020;16:19:38;Stop          ;04.12.2018;FEY;;LION;49;14500;7200;16576;2;99;99;;;4150;4150;1;12990;27.34;27.64;31,9;BCS1388054;1;11
009513;12.01.2021;04:17:36;Charge to 90% ;04.12.2018;FEY;;LION;49;14500;7200;16576;2;97;98;;;4134;4134;1;12997;23.04;23.24;23,6;BCS1388054;5;13
009513;12.01.2021;05:15:37;Stop          ;04.12.2018;FEY;;LION;49;14500;7200;192;2;90;90;8400;3000;4062;4062;1;12993;27.24;28.74;31,6;BCS1388054;5;13
009513;12.01.2021;05:21:53;Cycle         ;04.12.2018;FEY;;LION;49;14500;7200;192;2;90;90;8400;3000;4063;4063;1;12992;27.24;28.44;30,6;BCS1388054;5;13
009513;13.01.2021;08:31:10;Stop          ;04.12.2018;FEY;;LION;49;14500;7200;224;4;97;100;8400;;4156;4157;1;12992;27.14;28.34;31,1;BCS1388054;5;13
009513;22.02.2021;17:31:46;Normalcharge  ;04.12.2018;FEY;;LION;49;14500;7200;192;4;71;73;8400;3000;3881;3881;1;13002;26.44;25.94;31,6;BCS1388054;1;13
009513;22.02.2021;23:06:28;Stop          ;04.12.2018;FEY;;LION;49;14500;7200;224;4;98;100;8400;;4154;4154;1;13004;26.64;27.14;30,6;BCS1388054;1;13
009513;06.04.2021;08:39:10;Normalcharge  ;04.12.2018;FEY;;LION;49;14500;7200;224;4;96;99;8400;;4129;4129;1;13003;21.54;24.74;28,1;BCS1388054;5;6
009513;06.04.2021;08:39:58;Stop          ;04.12.2018;FEY;;LION;49;14500;7200;224;4;96;99;8400;;4129;4129;1;13003;21.54;24.84;28,4;BCS1388054;5;6

File: 009546.txt
Serialnumber ; Date ; Time ; Action ; Date of Manufacture ; Manufacturer ; Battery Name ; Device-Chemistry ; Specification-Info ; Design-Capacity [mAh] ; Design-Voltage [mV] ; Battery Status ; Cycle Count ; SOC [%] ; Relativ SOC[%] ; Desired Voltage [mV]; Desired Current [mA]; Cell Voltage 1 [mV] ; Cell Voltage 2 [mV] ; Max_Error [%] ; Busvoltage[mV] ; Battery Temperature [°C] ; Charger Temperature [°C] ; Batterysystem ; Case ; PLace
009546;07.12.2020;04:14:28;Cycle         ;03.12.2018;FEY;;LION;49;14500;7200;16576;1;96;98;;;4133;4134;1;13001;25.54;26.94;30,3;BCS1388054;4;6
009546;08.12.2020;16:19:56;Stop          ;03.12.2018;FEY;;LION;49;14500;7200;16576;1;96;98;;;4131;4132;1;13001;27.54;28.24;31,9;BCS1388054;4;6
009546;12.01.2021;04:17:36;Charge to 90% ;03.12.2018;FEY;;LION;49;14500;7200;16576;1;95;97;;;4119;4120;1;13005;22.94;23.04;23,6;BCS1388054;5;10
009546;12.01.2021;05:15:37;Stop          ;03.12.2018;FEY;;LION;49;14500;7200;192;1;90;90;8400;3000;4056;4057;1;12999;26.84;27.74;31,6;BCS1388054;5;10
009546;12.01.2021;05:21:53;Cycle         ;03.12.2018;FEY;;LION;49;14500;7200;192;1;90;90;8400;3000;4057;4058;1;12999;26.84;27.34;30,6;BCS1388054;5;10
009546;13.01.2021;08:31:10;Stop          ;03.12.2018;FEY;;LION;49;14500;7200;224;3;96;100;8400;;4156;4157;1;13001;26.94;27.34;31,1;BCS1388054;5;10
009546;21.02.2021;13:44:55;Normalcharge  ;03.12.2018;FEY;;LION;49;14500;7200;192;3;59;61;8400;3000;3768;3770;1;13009;22.74;22.24;27,7;BCS1388054;5;1
009546;21.02.2021;19:31:36;Stop          ;03.12.2018;FEY;;LION;49;14500;7200;224;3;97;100;8400;;4154;4155;1;13006;26.74;27.74;30,6;BCS1388054;5;1
009546;06.04.2021;08:39:16;Normalcharge  ;03.12.2018;FEY;;LION;49;14500;7200;224;3;95;99;8400;;4128;4129;1;12983;21.04;24.34;28,1;BCS1388054;6;16
009546;06.04.2021;08:40:04;Stop          ;03.12.2018;FEY;;LION;49;14500;7200;224;3;95;99;8400;;4128;4129;1;12963;21.04;24.44;28,5;BCS1388054;6;16

File: 009548.txt
Serialnumber ; Date ; Time ; Action ; Date of Manufacture ; Manufacturer ; Battery Name ; Device-Chemistry ; Specification-Info ; Design-Capacity [mAh] ; Design-Voltage [mV] ; Battery Status ; Cycle Count ; SOC [%] ; Relativ SOC[%] ; Desired Voltage [mV]; Desired Current [mA]; Cell Voltage 1 [mV] ; Cell Voltage 2 [mV] ; Max_Error [%] ; Busvoltage[mV] ; Battery Temperature [°C] ; Charger Temperature [°C] ; Batterysystem ; Case ; PLace
009548;24.11.2020;08:56:08;Normalcharge  ;04.12.2018;FEY;;LION;49;14500;7200;192;1;78;80;8400;3000;3934;3934;1;13016;23.34;25.24;25,7;BCS1388054;1;16
009548;24.11.2020;08:59:34;Stop          ;04.12.2018;FEY;;LION;49;14500;7200;128;1;79;81;8400;3000;4036;3987;1;12915;23.74;29.84;26,4;BCS1388054;1;16
009548;24.11.2020;08:59:41;Normalcharge  ;04.12.2018;FEY;;LION;49;14500;7200;128;1;79;81;8400;3000;3953;3955;1;13012;23.74;29.64;26,4;BCS1388054;1;16
009548;24.11.2020;16:23:04;Stop          ;04.12.2018;FEY;;LION;49;14500;7200;224;1;98;100;8400;;4153;4152;1;13010;26.14;27.74;28,5;BCS1388054;1;16
009548;07.12.2020;04:14:17;Cycle         ;04.12.2018;FEY;;LION;49;14500;7200;224;1;97;100;8400;;4142;4141;1;13005;25.34;27.54;30,3;BCS1388054;1;6
009548;08.12.2020;16:19:38;Stop          ;04.12.2018;FEY;;LION;49;14500;7200;224;2;97;100;8400;;4152;4153;1;13004;26.94;28.64;31,9;BCS1388054;1;6
009548;03.03.2021;08:17:40;Normalcharge  ;04.12.2018;FEY;;LION;49;14500;7200;192;2;67;70;8400;3000;3849;3850;1;13007;22.74;22.84;23,6;BCS1388054;6;12
009548;03.03.2021;11:56:52;Stop          ;04.12.2018;FEY;;LION;49;14500;7200;224;2;97;100;8400;;4159;4159;1;12999;27.34;27.44;31,7;BCS1388054;6;12
009548;06.04.2021;08:38:46;Normalcharge  ;04.12.2018;FEY;;LION;49;14500;7200;224;2;95;99;8400;;4132;4131;1;13013;20.54;26.04;28,1;BCS1388054;2;5
009548;06.04.2021;08:39:36;Stop          ;04.12.2018;FEY;;LION;49;14500;7200;224;2;95;99;8400;;4132;4131;1;13010;20.64;26.44;28,2;BCS1388054;2;5

File: 009553.txt
Serialnumber ; Date ; Time ; Action ; Date of Manufacture ; Manufacturer ; Battery Name ; Device-Chemistry ; Specification-Info ; Design-Capacity [mAh] ; Design-Voltage [mV] ; Battery Status ; Cycle Count ; SOC [%] ; Relativ SOC[%] ; Desired Voltage [mV]; Desired Current [mA]; Cell Voltage 1 [mV] ; Cell Voltage 2 [mV] ; Max_Error [%] ; Busvoltage[mV] ; Battery Temperature [°C] ; Charger Temperature [°C] ; Batterysystem ; Case ; PLace
009553;10.12.2019;15:28:40;Charge to 30% ;04.12.2018;FEY;;LION;49;14500;7200;224;52;92;99;8400;;4132;4132;1;13011;22.94;25.14;27,1;BCS1388054;2;2
009553;10.12.2019;20:48:37;Stop          ;04.12.2018;FEY;;LION;49;14500;7200;192;52;28;30;8400;3000;3563;3563;1;13009;33.64;34.34;33,2;BCS1388054;2;2
009553;11.12.2019;08:48:24;Fastcharge    ;04.12.2018;FEY;;LION;49;14500;7200;192;52;28;30;8400;3000;3570;3570;1;13010;26.44;28.94;31,9;BCS1388054;2;2
009553;11.12.2019;13:39:47;Stop          ;04.12.2018;FEY;;LION;49;14500;7200;224;52;94;100;8400;;4161;4161;1;13010;30.44;31.44;32,5;BCS1388054;2;2
009553;11.12.2019;15:46:18;Charge to 10% ;04.12.2018;FEY;;LION;49;14500;7200;224;52;95;99;8400;;4153;4153;1;13010;27.34;29.34;31,4;BCS1388054;2;2
009553;11.12.2019;22:49:04;Stop          ;04.12.2018;FEY;;LION;49;14500;7200;192;54;10;10;8400;3000;3352;3353;1;13009;34.54;34.94;33,6;BCS1388054;2;2
009553;12.12.2019;08:44:52;Normalcharge  ;04.12.2018;FEY;;LION;49;14500;7200;192;54;9;10;8400;3000;3362;3363;1;13010;26.64;29.14;31,9;BCS1388054;2;2
009553;12.12.2019;16:40:06;Stop          ;04.12.2018;FEY;;LION;49;14500;7200;224;54;95;100;8400;;4160;4160;1;13009;29.44;30.94;31,7;BCS1388054;2;2
009553;13.12.2019;10:47:50;Charge to 10% ;04.12.2018;FEY;;LION;49;14500;7200;224;54;95;100;8400;;4148;4148;1;13009;26.64;29.24;32,0;BCS1388054;2;2
009553;13.12.2019;15:42:08;Cycle         ;04.12.2018;FEY;;LION;49;14500;7200;192;54;34;36;8400;3000;3499;3550;1;13563;33.44;39.94;34,6;BCS1388054;2;2
009553;13.12.2019;15:42:08;Stop          ;04.12.2018;FEY;;LION;49;14500;7200;192;54;34;36;8400;3000;3499;3550;1;13563;33.44;39.94;34,6;BCS1388054;2;2
009553;14.12.2019;22:48:51;Stop          ;04.12.2018;FEY;;LION;49;14500;7200;224;56;92;99;8400;;4151;4150;1;13011;26.74;29.14;32,0;BCS1388054;2;2
009553;16.12.2019;07:43:06;Charge to 10% ;04.12.2018;FEY;;LION;49;14500;7200;224;56;93;100;8400;;4145;4144;1;13010;26.34;28.74;31,9;BCS1388054;2;2
009553;16.12.2019;14:37:54;Stop          ;04.12.2018;FEY;;LION;49;14500;7200;192;57;10;10;8400;3000;3366;3366;1;13011;33.04;33.14;32,4;BCS1388054;2;2
009553;16.12.2019;14:44:03;Charge to 90% ;04.12.2018;FEY;;LION;49;14500;7200;192;57;10;10;8400;3000;3367;3368;1;13011;32.64;32.34;31,9;BCS1388054;2;2
009553;16.12.2019;20:51:09;Stop          ;04.12.2018;FEY;;LION;49;14500;7200;192;57;84;90;8400;3000;4055;4055;1;13012;31.84;32.24;31,6;BCS1388054;2;2
009553;17.12.2019;08:37:40;Fastcharge    ;04.12.2018;FEY;;LION;49;14500;7200;192;57;84;90;8400;3000;4046;4046;1;13010;26.44;28.84;31,6;BCS1388054;2;2
009553;17.12.2019;10:30:36;Stop          ;04.12.2018;FEY;;LION;49;14500;7200;224;57;94;100;8400;;4162;4161;1;13011;27.94;30.54;31,5;BCS1388054;2;2
009553;17.12.2019;13:38:22;Charge to 10% ;04.12.2018;FEY;;LION;49;14500;7200;224;57;94;100;8400;;4149;4148;1;13011;26.74;28.94;30,8;BCS1388054;2;2
009553;17.12.2019;20:36:00;Stop          ;04.12.2018;FEY;;LION;49;14500;7200;192;58;10;10;8400;3000;3365;3365;1;13010;34.24;34.54;33,6;BCS1388054;2;2
009553;18.12.2019;08:31:17;Fastcharge    ;04.12.2018;FEY;;LION;49;14500;7200;192;58;10;10;8400;3000;3373;3373;1;13011;26.54;29.04;31,6;BCS1388054;2;2
009553;18.12.2019;14:28:27;Stop          ;04.12.2018;FEY;;LION;49;14500;7200;224;58;94;100;8400;;4161;4160;1;13012;30.44;31.34;32,0;BCS1388054;2;2
009553;19.12.2019;08:23:50;Charge to 60% ;04.12.2018;FEY;;LION;49;14500;7200;224;58;95;100;8400;;4149;4148;1;13010;26.44;28.84;31,5;BCS1388054;2;2
009553;19.12.2019;11:32:11;Stop          ;04.12.2018;FEY;;LION;49;14500;7200;192;58;57;60;8400;3000;3770;3768;1;13009;34.14;35.04;34,0;BCS1388054;2;2
009553;19.12.2019;12:16:37;Cycle         ;04.12.2018;FEY;;LION;49;14500;7200;192;58;57;60;8400;3000;3778;3777;1;13011;30.94;31.34;32,7;BCS1388054;2;2
009553;20.12.2019;17:35:47;Stop          ;04.12.2018;FEY;;LION;49;14500;7200;224;60;93;99;8400;;4151;4152;1;13011;26.74;28.94;31,1;BCS1388054;2;2
009553;06.01.2020;06:34:42;Charge to 60% ;04.12.2018;FEY;;LION;49;14500;7200;224;60;92;99;8400;;4122;4122;1;13012;26.44;28.84;31,9;BCS1388054;2;2
009553;06.01.2020;09:32:11;Stop          ;04.12.2018;FEY;;LION;49;14500;7200;192;60;56;60;8400;3000;3770;3770;1;13012;33.34;34.24;33,2;BCS1388054;2;2
009553;06.01.2020;09:50:30;Fastcharge    ;04.12.2018;FEY;;LION;49;14500;7200;192;60;56;60;8400;3000;3777;3776;1;13012;32.04;31.94;32,7;BCS1388054;2;2
009553;06.01.2020;13:08:34;Stop          ;04.12.2018;FEY;;LION;49;14500;7200;224;60;94;100;8400;;4160;4160;1;13012;29.84;30.74;31,6;BCS1388054;2;2

File: 009573.txt
Serialnumber ; Date ; Time ; Action ; Date of Manufacture ; Manufacturer ; Battery Name ; Device-Chemistry ; Specification-Info ; Design-Capacity [mAh] ; Design-Voltage [mV] ; Battery Status ; Cycle Count ; SOC [%] ; Relativ SOC[%] ; Desired Voltage [mV]; Desired Current [mA]; Cell Voltage 1 [mV] ; Cell Voltage 2 [mV] ; Max_Error [%] ; Busvoltage[mV] ; Battery Temperature [°C] ; Charger Temperature [°C] ; Batterysystem ; Case ; PLace
009573;07.12.2020;04:14:28;Cycle         ;04.12.2018;FEY;;LION;49;14500;7200;192;4;98;98;8400;;4135;4134;1;13002;25.64;27.54;30,3;BCS1388054;4;15
009573;08.12.2020;16:19:56;Stop          ;04.12.2018;FEY;;LION;49;14500;7200;192;4;98;98;8400;;4133;4132;1;13000;27.74;29.04;31,9;BCS1388054;4;15
009573;12.01.2021;04:17:33;Charge to 90% ;04.12.2018;FEY;;LION;49;14500;7200;192;4;97;97;8400;;4120;4119;1;13008;23.14;23.24;23,6;BCS1388054;4;17
009573;12.01.2021;04:57:16;Stop          ;04.12.2018;FEY;;LION;49;14500;7200;192;4;91;90;8400;3000;4049;4050;1;13003;27.04;29.04;31,6;BCS1388054;4;17
009573;12.01.2021;05:21:49;Cycle         ;04.12.2018;FEY;;LION;49;14500;7200;192;4;91;90;8400;3000;4054;4055;1;13003;27.04;27.74;30,4;BCS1388054;4;17
009573;13.01.2021;08:19:19;Stop          ;04.12.2018;FEY;;LION;49;14500;7200;224;5;97;99;8400;;4154;4155;1;13005;27.04;27.74;30,7;BCS1388054;4;17
009573;21.02.2021;13:43:49;Normalcharge  ;04.12.2018;FEY;;LION;49;14500;7200;192;6;59;60;8400;3000;3736;3737;1;13007;22.94;22.34;27,7;BCS1388054;3;11
009573;21.02.2021;20:44:52;Stop           ;04.12.2018;FEY;;LION;49;14500;7200;224;6;98;100;8400;;4151;4151;1;12999;26.64;26.24;31,2;BCS1388054;3;11
009573;06.04.2021;08:39:16;Normalcharge  ;04.12.2018;FEY;;LION;49;14500;7200;224;6;96;99;8400;;4127;4126;1;13001;21.34;24.84;28,1;BCS1388054;6;4
009573;06.04.2021;08:40:03;Stop          ;04.12.2018;FEY;;LION;49;14500;7200;224;6;96;99;8400;;4126;4126;1;12980;21.44;25.04;28,5;BCS1388054;6;4

File: 009574.txt
Serialnumber ; Date ; Time ; Action ; Date of Manufacture ; Manufacturer ; Battery Name ; Device-Chemistry ; Specification-Info ; Design-Capacity [mAh] ; Design-Voltage [mV] ; Battery Status ; Cycle Count ; SOC [%] ; Relativ SOC[%] ; Desired Voltage [mV]; Desired Current [mA]; Cell Voltage 1 [mV] ; Cell Voltage 2 [mV] ; Max_Error [%] ; Busvoltage[mV] ; Battery Temperature [°C] ; Charger Temperature [°C] ; Batterysystem ; Case ; PLace
009574;30.11.2020;09:42:55;Stop          ;04.12.2018;FEY;;LION;49;14500;7200;192;3;96;98;8400;;4129;4130;1;13023;27.94;28.94;31,7;BCS1388054;7;13
009574;12.01.2021;04:17:22;Charge to 90% ;04.12.2018;FEY;;LION;49;14500;7200;192;3;95;97;8400;;4113;4113;1;13008;23.34;24.44;23,5;BCS1388054;2;10
009574;12.01.2021;04:54:21;Stop          ;04.12.2018;FEY;;LION;49;14500;7200;192;3;89;90;8400;3000;4050;4050;1;12999;26.84;30.74;31,9;BCS1388054;2;10
009574;12.01.2021;05:21:40;Cycle         ;04.12.2018;FEY;;LION;49;14500;7200;192;3;89;90;8400;3000;4054;4055;1;13001;27.24;28.84;30,6;BCS1388054;2;10
009574;13.01.2021;08:20:19;Stop          ;04.12.2018;FEY;;LION;49;14500;7200;224;4;97;100;8400;;4156;4158;1;13001;27.34;28.84;30,8;BCS1388054;2;10
009574;21.02.2021;13:44:56;Normalcharge  ;04.12.2018;FEY;;LION;49;14500;7200;192;5;63;65;8400;3000;3807;3809;1;13021;23.34;24.14;27,7;BCS1388054;5;5
009574;21.02.2021;19:31:36;Stop          ;04.12.2018;FEY;;LION;49;14500;7200;224;5;97;100;8400;;4153;4153;1;13016;27.14;28.24;30,6;BCS1388054;5;5
009574;06.04.2021;08:39:03;Normalcharge  ;04.12.2018;FEY;;LION;49;14500;7200;224;5;96;99;8400;;4127;4127;1;13007;21.04;24.84;28,1;BCS1388054;4;17
009574;06.04.2021;08:39:53;Stop          ;04.12.2018;FEY;;LION;49;14500;7200;224;5;96;99;8400;;4127;4127;1;13005;21.14;25.04;28,4;BCS1388054;4;17

File: 009575.txt
Serialnumber ; Date ; Time ; Action ; Date of Manufacture ; Manufacturer ; Battery Name ; Device-Chemistry ; Specification-Info ; Design-Capacity [mAh] ; Design-Voltage [mV] ; Battery Status ; Cycle Count ; SOC [%] ; Relativ SOC[%] ; Desired Voltage [mV]; Desired Current [mA]; Cell Voltage 1 [mV] ; Cell Voltage 2 [mV] ; Max_Error [%] ; Busvoltage[mV] ; Battery Temperature [°C] ; Charger Temperature [°C] ; Batterysystem ; Case ; PLace
009575;30.11.2020;09:42:55;Stop          ;04.12.2018;FEY;;LION;49;14500;7200;192;3;95;96;8400;;4122;4121;1;13028;27.74;29.74;31,7;BCS1388054;7;8
009575;12.01.2021;04:17:22;Charge to 90% ;04.12.2018;FEY;;LION;49;14500;7200;192;3;94;95;8400;3000;4106;4106;1;13007;23.14;23.14;23,5;BCS1388054;2;11
009575;12.01.2021;04:54:21;Stop          ;04.12.2018;FEY;;LION;49;14500;7200;192;4;90;90;8400;3000;4056;4056;1;12998;26.74;28.84;31,9;BCS1388054;2;11
009575;12.01.2021;05:21:40;Cycle         ;04.12.2018;FEY;;LION;49;14500;7200;192;4;90;90;8400;3000;4059;4059;1;13000;27.14;27.14;30,6;BCS1388054;2;11
009575;13.01.2021;08:20:19;Stop          ;04.12.2018;FEY;;LION;49;14500;7200;224;5;97;100;8400;;4155;4155;1;13001;26.94;27.04;30,8;BCS1388054;2;11
009575;22.02.2021;17:31:59;Normalcharge  ;04.12.2018;FEY;;LION;49;14500;7200;192;5;63;65;8400;3000;3802;3804;1;13004;26.44;27.54;31,6;BCS1388054;2;3
009575;22.02.2021;21:53:27;Stop          ;04.12.2018;FEY;;LION;49;14500;7200;224;5;97;100;8400;;4156;4157;1;13005;26.94;29.14;31,7;BCS1388054;2;3
009575;06.04.2021;08:39:03;Normalcharge  ;04.12.2018;FEY;;LION;49;14500;7200;224;5;95;99;8400;;4128;4128;1;13014;21.34;25.64;28,1;BCS1388054;4;10
009575;06.04.2021;08:39:53;Stop          ;04.12.2018;FEY;;LION;49;14500;7200;224;5;95;99;8400;;4128;4128;1;13012;21.34;25.84;28,4;BCS1388054;4;10