Folder: Battery_sort_V2/reader/backup_20210408/Batterieverzeichnis_new

Note: reader/backup_20210408/Batterieverzeichnis_new/009509.txt
Serialnumber ; Date ; Time ; Action ; Date of Manufacture ; Manufacturer ; Battery Name ; Device-Chemistry ; Specification-Info ; Design-Capacity [mAh] ; Design-Voltage [mV] ; Battery Status ; Cycle Count ; SOC [%] ; Relativ SOC[%] ; Desired Voltage [mV]; Desired Current [mA]; Cell Voltage 1 [mV] ; Cell Voltage 2 [mV] ; Max_Error [%] ; Busvoltage[mV] ; Battery Temperature [°C] ; Charger Temperature [°C] ; Batterysystem ; Case ; PLace
009509;01.12.2020;07:38:36;Cycle         ;04.12.2018;FEY;;LION;49;14500;7200;192;1;77;79;8400;3000;3917;3917;1;13008;25.34;26.14;28,8;BCS1388054;2;4
009509;02.12.2020;16:21:01;Stop          ;04.12.2018;FEY;;LION;49;14500;7200;224;2;96;100;8400;;4154;4155;1;13001;26.44;28.34;29,3;BCS1388054;2;4
009509;03.03.2021;08:17:29;Normalcharge  ;04.12.2018;FEY;;LION;49;14500;7200;192;2;83;87;8400;3000;4004;4004;1;13005;23.14;23.14;23,5;BCS1388054;4;14
009509;03.03.2021;10:32:46;Stop          ;04.12.2018;FEY;;LION;49;14500;7200;224;2;96;100;8400;;4158;4158;1;12998;28.44;29.64;32,0;BCS1388054;4;14
009509;04.04.2021;11:50:02;Normalcharge  ;04.12.2018;FEY;;LION;49;14500;7200;224;2;95;99;8400;;4135;4135;1;13007;24.84;24.94;27,7;BCS1388054;6;5
009509;04.04.2021;11:51:24;Stop          ;04.12.2018;FEY;;LION;49;14500;7200;224;2;95;99;8400;;4135;4134;1;12675;24.84;25.34;28,5;BCS1388054;6;5

Note: reader/backup_20210408/Batterieverzeichnis_new/009583.txt
Serialnumber ; Date ; Time ; Action ; Date of Manufacture ; Manufacturer ; Battery Name ; Device-Chemistry ; Specification-Info ; Design-Capacity [mAh] ; Design-Voltage [mV] ; Battery Status ; Cycle Count ; SOC [%] ; Relativ SOC[%] ; Desired Voltage [mV]; Desired Current [mA]; Cell Voltage 1 [mV] ; Cell Voltage 2 [mV] ; Max_Error [%] ; Busvoltage[mV] ; Battery Temperature [°C] ; Charger Temperature [°C] ; Batterysystem ; Case ; PLace
009583;02.12.2020;11:43:08;Cycle         ;04.12.2018;FEY;;LION;49;14500;7200;192;3;79;80;8400;3000;3929;3929;1;12990;26.14;26.64;28,4;BCS1388054;1;5
009583;03.12.2020;15:31:47;Stop          ;04.12.2018;FEY;;LION;49;14500;7200;224;4;96;100;8400;;4155;4156;1;12991;26.74;27.04;28,8;BCS1388054;1;5
009583;03.12.2020;17:28:02;Normalcharge  ;04.12.2018;FEY;;LION;49;14500;7200;224;4;96;100;8400;;4153;4155;1;12992;26.64;27.04;28,9;BCS1388054;1;5
009583;06.04.2021;08:38:50;Normalcharge  ;04.12.2018;FEY;;LION;49;14500;7200;192;4;93;97;8400;;4101;4102;1;13003;20.84;24.84;28,1;BCS1388054;3;9
009583;06.04.2021;08:39:42;Stop           ;04.12.2018;FEY;;LION;49;14500;7200;192;4;93;97;8400;;4101;4102;1;13004;20.84;25.14;28,2;BCS1388054;3;9

Note: reader/backup_20210408/Batterieverzeichnis_new/009586.txt
009586;29.11.2020;04:42:29;Cycle         ;04.12.2018;FEY;;LION;49;14500;7200;16576;3;92;92;;;4073;4074;1;12997;23.34;17.44;27,5;BCS1388054;6;10
009586;12.01.2021;04:17:22;Charge to 90% ;04.12.2018;FEY;;LION;49;14500;7200;16576;3;91;91;;;4060;4062;1;12996;23.24;23.74;23,5;BCS1388054;2;15
009586;12.01.2021;04:54:21;Stop          ;04.12.2018;FEY;;LION;49;14500;7200;192;3;91;90;8400;3000;4055;4056;1;12990;25.74;30.94;31,9;BCS1388054;2;15
009586;12.01.2021;05:21:40;Cycle         ;04.12.2018;FEY;;LION;49;14500;7200;192;3;91;90;8400;3000;4056;4057;1;12990;26.74;28.84;30,6;BCS1388054;2;15
009586;13.01.2021;08:20:19;Stop          ;04.12.2018;FEY;;LION;49;14500;7200;224;4;97;100;8400;;4155;4154;1;12990;27.24;28.74;30,8;BCS1388054;2;15
009586;21.02.2021;13:43:19;Normalcharge  ;04.12.2018;FEY;;LION;49;14500;7200;192;5;46;48;8400;3000;3641;3640;1;12992;23.84;24.34;27,5;BCS1388054;1;11
009586;22.02.2021;17:08:49;Stop          ;04.12.2018;FEY;;LION;49;14500;7200;224;5;98;100;8400;;4147;4146;1;12992;26.14;25.74;30,0;BCS1388054;1;11
009586;06.04.2021;08:38:50;Normalcharge  ;04.12.2018;FEY;;LION;49;14500;7200;224;5;97;99;8400;;4126;4126;1;13019;21.04;25.14;28,1;BCS1388054;3;3
009586;06.04.2021;08:39:42;Stop           ;04.12.2018;FEY;;LION;49;14500;7200;224;5;97;99;8400;;4126;4126;1;13016;21.14;25.54;28,2;BCS1388054;3;3

Note: reader/backup_20210408/Batterieverzeichnis_new/009589.txt
Serialnumber ; Date ; Time ; Action ; Date of Manufacture ; Manufacturer ; Battery Name ; Device-Chemistry ; Specification-Info ; Design-Capacity [mAh] ; Design-Voltage [mV] ; Battery Status ; Cycle Count ; SOC [%] ; Relativ SOC[%] ; Desired Voltage [mV]; Desired Current [mA]; Cell Voltage 1 [mV] ; Cell Voltage 2 [mV] ; Max_Error [%] ; Busvoltage[mV] ; Battery Temperature [°C] ; Charger Temperature [°C] ; Batterysystem ; Case ; PLace
009589;07.12.2020;04:14:21;Cycle         ;03.12.2018;FEY;;LION;49;14500;7200;224;4;98;99;8400;;4143;4142;1;12988;25.84;28.04;30,3;BCS1388054;2;15
009589;08.12.2020;16:19:44;Stop          ;03.12.2018;FEY;;LION;49;14500;7200;224;5;98;100;8400;;4152;4152;1;12988;28.04;29.64;31,9;BCS1388054;2;15
009589;03.03.2021;08:17:40;Normalcharge  ;03.12.2018;FEY;;LION;49;14500;7200;192;5;70;71;8400;3000;3863;3862;1;13002;23.34;23.24;23,6;BCS1388054;6;7
009589;03.03.2021;11:56:52;Stop          ;03.12.2018;FEY;;LION;49;14500;7200;224;5;98;100;8400;;4157;4157;1;12994;28.84;29.24;31,7;BCS1388054;6;7
009589;06.04.2021;08:38:46;Normalcharge  ;03.12.2018;FEY;;LION;49;14500;7200;224;5;97;99;8400;;4133;4132;1;12992;21.74;25.74;28,1;BCS1388054;2;18
009589;06.04.2021;08:39:36;Stop          ;03.12.2018;FEY;;LION;49;14500;7200;224;5;97;99;8400;;4132;4132;1;12990;21.84;25.94;28,2;BCS1388054;2;18

Note: reader/backup_20210408/Batterieverzeichnis_new/009653.txt
Serialnumber ; Date ; Time ; Action ; Date of Manufacture ; Manufacturer ; Battery Name ; Device-Chemistry ; Specification-Info ; Design-Capacity [mAh] ; Design-Voltage [mV] ; Battery Status ; Cycle Count ; SOC [%] ; Relativ SOC[%] ; Desired Voltage [mV]; Desired Current [mA]; Cell Voltage 1 [mV] ; Cell Voltage 2 [mV] ; Max_Error [%] ; Busvoltage[mV] ; Battery Temperature [°C] ; Charger Temperature [°C] ; Batterysystem ; Case ; PLace
009653;07.12.2020;04:14:21;Cycle         ;04.12.2018;FEY;;LION;49;14500;7200;224;3;100;99;8400;;4156;4156;1;13000;25.24;27.94;30,3;BCS1388054;2;8
009653;08.12.2020;16:19:44;Stop          ;04.12.2018;FEY;;LION;49;14500;7200;224;4;98;100;8400;;4152;4150;1;12999;27.44;29.64;31,9;BCS1388054;2;8
009653;03.03.2021;08:17:35;Normalcharge  ;04.12.2018;FEY;;LION;49;14500;7200;192;5;73;75;8400;3000;3889;3888;1;13009;22.74;23.24;23,6;BCS1388054;5;14
009653;03.03.2021;11:26:36;Stop          ;04.12.2018;FEY;;LION;49;14500;7200;224;5;98;100;8400;;4159;4156;1;13002;28.64;30.04;31,5;BCS1388054;5;14
009653;06.04.2021;08:38:50;Normalcharge  ;04.12.2018;FEY;;LION;49;14500;7200;224;5;96;99;8400;;4132;4129;1;13008;20.24;24.94;28,1;BCS1388054;3;18
009653;06.04.2021;08:39:42;Stop           ;04.12.2018;FEY;;LION;49;14500;7200;224;5;96;99;8400;;4132;4129;1;13006;20.44;25.04;28,2;BCS1388054;3;18

Note: reader/backup_20210408/Batterieverzeichnis_new/009718.txt
009718;29.11.2020;04:33:37;Cycle          ;04.12.2018;FEY;;LION;49;14500;7200;192;1;97;98;8400;;4153;4154;1;13008;22.94;23.34;27,4;BCS1388054;3;10
009718;12.01.2021;04:16:00;Charge to 90% ;04.12.2018;FEY;;LION;49;14500;7200;192;1;95;97;8400;;4131;4131;1;13007;22.94;17.94;23,0;BCS1388054;1;17
009718;12.01.2021;04:16:03;Stop          ;04.12.2018;FEY;;LION;49;14500;7200;192;1;95;97;8400;;4131;4131;1;13008;22.94;22.44;23,0;BCS1388054;1;17
009718;12.01.2021;04:17:15;Charge to 90% ;04.12.2018;FEY;;LION;49;14500;7200;192;1;95;97;8400;;4130;4131;1;13006;22.94;23.24;23,5;BCS1388054;1;17
009718;12.01.2021;04:55:18;Stop          ;04.12.2018;FEY;;LION;49;14500;7200;192;1;89;90;8400;3000;4062;4062;1;13002;26.94;29.34;31,7;BCS1388054;1;17
009718;12.01.2021;05:21:33;Cycle         ;04.12.2018;FEY;;LION;49;14500;7200;192;1;89;90;8400;3000;4066;4067;1;13002;26.64;27.44;30,6;BCS1388054;1;17
009718;13.01.2021;08:18:34;Stop          ;04.12.2018;FEY;;LION;49;14500;7200;224;2;97;100;8400;;4157;4157;1;13002;26.34;27.34;30,7;BCS1388054;1;17
009718;06.04.2021;08:39:16;Normalcharge  ;04.12.2018;FEY;;LION;49;14500;7200;192;3;77;80;8400;3000;3922;3922;1;13005;21.24;25.74;28,1;BCS1388054;6;8
009718;06.04.2021;08:40:03;Stop          ;04.12.2018;FEY;;LION;49;14500;7200;128;3;77;80;8400;3000;4011;3961;1;12977;21.34;27.34;28,5;BCS1388054;6;8

File: 000118.txt
Serialnumber ; Date ; Time ; Action ; Date of Manufacture ; Manufacturer ; Battery Name ; Device-Chemistry ; Specification-Info ; Design-Capacity [mAh] ; Design-Voltage [mV] ; Battery Status ; Cycle Count ; SOC [%] ; Relativ SOC[%] ; Desired Voltage [mV]; Desired Current [mA]; Cell Voltage 1 [mV] ; Cell Voltage 2 [mV] ; Max_Error [%] ; Busvoltage[mV] ; Battery Temperature [°C] ; Charger Temperature [°C] ; Batterysystem ; Case ; PLace
000118;13.12.2019;13:53:33;Fastcharge    ;28.11.2017;FEY;;LION;49;14500;7200;192;4;87;93;8400;3000;4036;4037;1;13029;22.54;33.64;35,8;BCS1388054;7;1
000118;13.12.2019;13:55:00;Stop          ;28.11.2017;FEY;;LION;49;14500;7200;128;4;88;93;8400;3000;4115;4078;1;12784;22.94;35.44;36,1;BCS1388054;7;1
000118;13.12.2019;13:55:04;Charge to 10% ;28.11.2017;FEY;;LION;49;14500;7200;128;4;88;93;8400;3000;4114;4079;1;13028;22.94;35.44;36,1;BCS1388054;7;1
000118;13.12.2019;13:55:27;Stop          ;28.11.2017;FEY;;LION;49;14500;7200;128;4;88;93;8400;3000;4044;4047;1;13364;23.04;34.44;36,1;BCS1388054;7;1
000118;13.12.2019;13:55:29;Fastcharge    ;28.11.2017;FEY;;LION;49;14500;7200;192;4;88;93;8400;3000;3987;4019;1;13437;23.04;34.44;36,1;BCS1388054;7;1
000118;13.12.2019;13:55:29;Stop          ;28.11.2017;FEY;;LION;49;14500;7200;192;4;88;93;8400;3000;3987;4019;1;13437;23.04;34.44;36,1;BCS1388054;7;1
000118;13.12.2019;13:55:33;Normalcharge  ;28.11.2017;FEY;;LION;49;14500;7200;192;4;88;93;8400;3000;3987;4019;1;13338;23.04;34.54;36,1;BCS1388054;7;1
000118;13.12.2019;13:55:39;Fastcharge    ;28.11.2017;FEY;;LION;49;14500;7200;192;4;88;93;8400;3000;4040;4041;1;13003;23.04;34.44;36,1;BCS1388054;7;1
000118;13.12.2019;13:55:39;Stop          ;28.11.2017;FEY;;LION;49;14500;7200;192;4;88;93;8400;3000;4040;4041;1;13003;23.04;34.44;36,1;BCS1388054;7;1
000118;13.12.2019;13:56:34;Stop          ;28.11.2017;FEY;;LION;49;14500;7200;128;4;88;93;8400;3000;4114;4080;1;12768;23.34;35.24;36,2;BCS1388054;7;1
000118;13.12.2019;13:56:38;Charge to 95% ;28.11.2017;FEY;;LION;49;14500;7200;128;4;88;93;8400;3000;4114;4080;1;13029;23.34;35.24;36,2;BCS1388054;7;1
000118;13.12.2019;13:56:40;Stop          ;28.11.2017;FEY;;LION;49;14500;7200;128;4;88;93;8400;3000;4114;4080;1;13029;23.34;35.24;36,2;BCS1388054;7;1
000118;13.12.2019;13:56:48;Charge to 90% ;28.11.2017;FEY;;LION;49;14500;7200;128;4;88;93;8400;3000;4047;4050;1;13029;23.34;34.84;36,2;BCS1388054;7;1
000118;13.12.2019;15:42:54;Stop          ;28.11.2017;FEY;;LION;49;14500;7200;192;4;86;90;8400;3000;4009;4010;1;12979;28.94;31.34;34,5;BCS1388054;7;1
000118;13.12.2019;15:42:59;Fastcharge    ;28.11.2017;FEY;;LION;49;14500;7200;192;4;86;90;8400;3000;4009;4010;1;13031;28.94;31.44;34,4;BCS1388054;7;1
000118;13.12.2019;21:04:43;Stop          ;28.11.2017;FEY;;LION;49;14500;7200;224;4;95;100;8400;;4153;4153;1;13032;26.74;28.84;31,7;BCS1388054;7;1

File: 000126.txt
Serialnumber ; Date ; Time ; Action ; Date of Manufacture ; Manufacturer ; Battery Name ; Device-Chemistry ; Specification-Info ; Design-Capacity [mAh] ; Design-Voltage [mV] ; Battery Status ; Cycle Count ; SOC [%] ; Relativ SOC[%] ; Desired Voltage [mV]; Desired Current [mA]; Cell Voltage 1 [mV] ; Cell Voltage 2 [mV] ; Max_Error [%] ; Busvoltage[mV] ; Battery Temperature [°C] ; Charger Temperature [°C] ; Batterysystem ; Case ; PLace
000126;13.12.2019;13:53:33;Fastcharge    ;28.11.2017;FEY;;LION;49;14500;7200;192;9;18;19;8400;3000;3450;3448;1;13025;22.14;34.54;35,8;BCS1388054;7;18
000126;13.12.2019;13:55:00;Stop          ;28.11.2017;FEY;;LION;49;14500;7200;128;9;18;19;8400;3000;3592;3521;1;12738;22.74;37.24;36,1;BCS1388054;7;18
000126;13.12.2019;13:55:04;Charge to 10% ;28.11.2017;FEY;;LION;49;14500;7200;128;9;18;19;8400;3000;3594;3520;1;13024;22.74;37.34;36,1;BCS1388054;7;18
000126;13.12.2019;13:55:27;Stop          ;28.11.2017;FEY;;LION;49;14500;7200;192;9;16;17;8400;3000;3411;3438;1;13446;22.94;35.74;36,1;BCS1388054;7;18
000126;13.12.2019;13:55:29;Fastcharge    ;28.11.2017;FEY;;LION;49;14500;7200;192;9;16;17;8400;3000;3411;3438;1;13446;22.94;35.74;36,1;BCS1388054;7;18
000126;13.12.2019;13:55:29;Stop          ;28.11.2017;FEY;;LION;49;14500;7200;192;9;16;17;8400;3000;3411;3438;1;13446;22.94;35.74;36,1;BCS1388054;7;18
000126;13.12.2019;13:55:33;Normalcharge  ;28.11.2017;FEY;;LION;49;14500;7200;192;9;16;17;8400;3000;3411;3438;1;13025;22.94;35.74;36,1;BCS1388054;7;18
000126;13.12.2019;13:55:39;Fastcharge    ;28.11.2017;FEY;;LION;49;14500;7200;192;9;16;17;8400;3000;3460;3458;1;12999;22.94;35.64;36,1;BCS1388054;7;18
000126;13.12.2019;13:55:39;Stop          ;28.11.2017;FEY;;LION;49;14500;7200;192;9;16;17;8400;3000;3460;3458;1;12999;22.94;35.64;36,1;BCS1388054;7;18
000126;13.12.2019;13:56:34;Stop          ;28.11.2017;FEY;;LION;49;14500;7200;128;9;16;17;8400;3000;3594;3520;1;12719;23.34;36.74;36,2;BCS1388054;7;18
000126;13.12.2019;13:56:38;Charge to 95% ;28.11.2017;FEY;;LION;49;14500;7200;128;9;16;17;8400;3000;3594;3520;1;13026;23.34;36.84;36,2;BCS1388054;7;18
000126;13.12.2019;13:56:40;Stop          ;28.11.2017;FEY;;LION;49;14500;7200;128;9;16;17;8400;3000;3594;3520;1;13025;23.34;36.84;36,2;BCS1388054;7;18
000126;13.12.2019;13:56:48;Charge to 90% ;28.11.2017;FEY;;LION;49;14500;7200;128;9;16;17;8400;3000;3468;3467;1;13026;23.34;36.04;36,2;BCS1388054;7;18
000126;13.12.2019;15:42:54;Stop          ;28.11.2017;FEY;;LION;49;14500;7200;128;9;38;40;8400;3000;3714;3659;1;12958;30.74;36.94;34,5;BCS1388054;7;18
000126;13.12.2019;15:42:59;Fastcharge    ;28.11.2017;FEY;;LION;49;14500;7200;128;9;38;40;8400;3000;3712;3661;1;13025;30.74;36.94;34,4;BCS1388054;7;18
000126;13.12.2019;21:04:43;Stop          ;28.11.2017;FEY;;LION;49;14500;7200;224;9;94;100;8400;;4155;4152;1;13027;26.84;27.84;31,7;BCS1388054;7;18

File: 001011.txt
Serialnumber ; Date ; Time ; Action ; Date of Manufacture ; Manufacturer ; Battery Name ; Device-Chemistry ; Specification-Info ; Design-Capacity [mAh] ; Design-Voltage [mV] ; Battery Status ; Cycle Count ; SOC [%] ; Relativ SOC[%] ; Desired Voltage [mV]; Desired Current [mA]; Cell Voltage 1 [mV] ; Cell Voltage 2 [mV] ; Max_Error [%] ; Busvoltage[mV] ; Battery Temperature [°C] ; Charger Temperature [°C] ; Batterysystem ; Case ; PLace
001011;10.12.2019;15:29:15;Charge to 30% ;28.11.2017;FEY;;LION;49;14500;7200;224;40;91;99;8400;;4120;4119;1;13031;22.34;23.14;27,1;BCS1388054;7;6
001011;10.12.2019;20:46:56;Stop          ;28.11.2017;FEY;;LION;49;14500;7200;192;41;28;30;8400;3000;3558;3557;1;13028;30.84;29.34;33,5;BCS1388054;7;6
001011;11.12.2019;08:49:12;Fastcharge    ;28.11.2017;FEY;;LION;49;14500;7200;192;41;28;30;8400;3000;3565;3564;1;13030;25.64;25.94;31,9;BCS1388054;7;6
001011;11.12.2019;13:38:42;Stop          ;28.11.2017;FEY;;LION;49;14500;7200;224;41;93;100;8400;;4160;4160;1;13030;28.04;27.34;32,7;BCS1388054;7;6
001011;11.12.2019;15:46:56;Charge to 10% ;28.11.2017;FEY;;LION;49;14500;7200;224;41;94;100;8400;;4152;4152;1;13030;26.14;26.04;31,2;BCS1388054;7;6
001011;11.12.2019;22:51:50;Stop          ;28.11.2017;FEY;;LION;49;14500;7200;192;42;10;10;8400;3000;3358;3357;1;13029;31.04;29.14;33,0;BCS1388054;7;6
001011;12.12.2019;08:45:27;Normalcharge  ;28.11.2017;FEY;;LION;49;14500;7200;192;42;9;10;8400;3000;3365;3364;1;13031;25.84;25.94;31,7;BCS1388054;7;6
001011;12.12.2019;16:41:08;Stop          ;28.11.2017;FEY;;LION;49;14500;7200;224;42;93;100;8400;;4158;4158;1;13030;27.64;26.84;31,6;BCS1388054;7;6
001011;13.12.2019;10:48:13;Charge to 10% ;28.11.2017;FEY;;LION;49;14500;7200;224;42;93;100;8400;;4148;4149;1;13031;25.84;26.24;32,0;BCS1388054;7;6
001011;13.12.2019;13:48:48;Stop          ;28.11.2017;FEY;;LION;49;14500;7200;192;42;56;60;8400;3000;3667;3719;1;13534;32.44;33.74;36,8;BCS1388054;7;6
001011;16.12.2019;07:43:34;Charge to 10% ;28.11.2017;FEY;;LION;49;14500;7200;192;42;56;60;8400;3000;3768;3772;1;13024;22.64;24.94;31,7;BCS1388054;7;11
001011;16.12.2019;11:52:34;Stop          ;28.11.2017;FEY;;LION;49;14500;7200;192;43;10;10;8400;3000;3360;3360;1;13023;31.14;30.54;34,7;BCS1388054;7;11
001011;16.12.2019;14:44:25;Charge to 90% ;28.11.2017;FEY;;LION;49;14500;7200;192;43;10;10;8400;3000;3365;3364;1;13023;28.24;27.84;31,7;BCS1388054;7;11
001011;16.12.2019;20:53:58;Stop          ;28.11.2017;FEY;;LION;49;14500;7200;192;43;83;90;8400;3000;4049;4049;1;13024;29.84;28.84;32,1;BCS1388054;7;11
001011;17.12.2019;08:38:02;Fastcharge    ;28.11.2017;FEY;;LION;49;14500;7200;192;43;83;90;8400;3000;4041;4041;1;13024;25.84;26.44;31,6;BCS1388054;7;11
001011;17.12.2019;10:36:25;Stop          ;28.11.2017;FEY;;LION;49;14500;7200;224;43;93;100;8400;;4157;4157;1;13023;27.14;27.34;31,5;BCS1388054;7;11
001011;17.12.2019;13:38:44;Charge to 10% ;28.11.2017;FEY;;LION;49;14500;7200;224;43;93;100;8400;;4150;4150;1;13025;26.14;26.44;30,8;BCS1388054;7;11
001011;17.12.2019;20:42:03;Stop          ;28.11.2017;FEY;;LION;49;14500;7200;192;44;10;10;8400;3000;3360;3360;1;13024;31.74;29.74;32,6;BCS1388054;7;11
001011;18.12.2019;08:31:43;Fastcharge    ;28.11.2017;FEY;;LION;49;14500;7200;192;44;9;10;8400;3000;3368;3367;1;13024;25.94;26.34;31,6;BCS1388054;7;11
001011;18.12.2019;14:30:48;Stop          ;28.11.2017;FEY;;LION;49;14500;7200;224;44;92;100;8400;;4158;4158;1;13025;28.64;27.74;31,6;BCS1388054;7;11
001011;19.12.2019;08:24:17;Charge to 60% ;28.11.2017;FEY;;LION;49;14500;7200;224;44;93;100;8400;;4149;4148;1;13024;25.84;26.54;31,6;BCS1388054;7;11
001011;19.12.2019;11:28:26;Stop          ;28.11.2017;FEY;;LION;49;14500;7200;192;45;56;60;8400;3000;3764;3766;1;13023;32.24;31.34;35,1;BCS1388054;7;11
001011;19.12.2019;12:16:57;Cycle         ;28.11.2017;FEY;;LION;49;14500;7200;192;45;56;60;8400;3000;3773;3775;1;13024;28.94;28.14;32,7;BCS1388054;7;11
001011;20.12.2019;17:22:28;Stop          ;28.11.2017;FEY;;LION;49;14500;7200;224;46;92;100;8400;;4152;4150;1;13024;26.04;26.74;31,9;BCS1388054;7;11
001011;06.01.2020;06:35:02;Charge to 60% ;28.11.2017;FEY;;LION;49;14500;7200;224;46;90;99;8400;;4123;4121;1;13025;25.94;26.54;31,9;BCS1388054;7;11
001011;06.01.2020;09:29:52;Stop          ;28.11.2017;FEY;;LION;49;14500;7200;192;46;55;60;8400;3000;3763;3763;1;13024;31.44;30.34;34,0;BCS1388054;7;11
001011;06.01.2020;09:50:50;Fastcharge    ;28.11.2017;FEY;;LION;49;14500;7200;192;46;55;60;8400;3000;3770;3770;1;13025;29.94;28.74;32,7;BCS1388054;7;11
001011;06.01.2020;13:05:11;Stop          ;28.11.2017;FEY;;LION;49;14500;7200;224;46;92;100;8400;;4159;4159;1;13025;28.34;27.74;32,4;BCS1388054;7;11

File: 001072.txt
Serialnumber ; Date ; Time ; Action ; Date of Manufacture ; Manufacturer ; Battery Name ; Device-Chemistry ; Specification-Info ; Design-Capacity [mAh] ; Design-Voltage [mV] ; Battery Status ; Cycle Count ; SOC [%] ; Relativ SOC[%] ; Desired Voltage [mV]; Desired Current [mA]; Cell Voltage 1 [mV] ; Cell Voltage 2 [mV] ; Max_Error [%] ; Busvoltage[mV] ; Battery Temperature [°C] ; Charger Temperature [°C] ; Batterysystem ; Case ; PLace
001072;10.12.2019;15:29:15;Charge to 30% ;15.02.2018;FEY;;LION;49;14500;7200;224;23;94;99;8400;;4123;4122;1;13030;22.44;24.64;27,1;BCS1388054;7;7
001072;10.12.2019;20:46:56;Stop          ;15.02.2018;FEY;;LION;49;14500;7200;192;24;29;30;8400;3000;3555;3555;1;13027;32.34;33.04;33,5;BCS1388054;7;7
001072;11.12.2019;08:49:12;Fastcharge    ;15.02.2018;FEY;;LION;49;14500;7200;192;24;29;30;8400;3000;3566;3566;1;13028;26.04;27.64;31,9;BCS1388054;7;7
001072;11.12.2019;13:38:42;Stop          ;15.02.2018;FEY;;LION;49;14500;7200;224;24;95;100;8400;;4166;4166;1;13030;29.14;30.24;32,7;BCS1388054;7;7
001072;11.12.2019;15:46:56;Charge to 10% ;15.02.2018;FEY;;LION;49;14500;7200;224;24;97;100;8400;;4156;4156;1;13029;26.64;27.94;31,2;BCS1388054;7;7
001072;11.12.2019;22:51:50;Stop          ;15.02.2018;FEY;;LION;49;14500;7200;192;25;10;10;8400;3000;3351;3351;1;13030;32.94;32.54;33,0;BCS1388054;7;7
001072;12.12.2019;08:45:27;Normalcharge  ;15.02.2018;FEY;;LION;49;14500;7200;192;25;9;10;8400;3000;3362;3361;1;13030;26.24;27.84;31,7;BCS1388054;7;7
001072;12.12.2019;16:41:08;Stop          ;15.02.2018;FEY;;LION;49;14500;7200;224;25;96;100;8400;;4162;4159;1;13029;28.54;29.24;31,6;BCS1388054;7;7
001072;13.12.2019;10:48:13;Charge to 10% ;15.02.2018;FEY;;LION;49;14500;7200;224;25;96;100;8400;;4150;4148;1;13029;26.24;27.84;32,0;BCS1388054;7;7
001072;13.12.2019;13:48:48;Stop          ;15.02.2018;FEY;;LION;49;14500;7200;192;25;59;61;8400;3000;3688;3736;1;13527;33.54;39.74;36,8;BCS1388054;7;7
001072;16.12.2019;07:43:27;Charge to 10% ;15.02.2018;FEY;;LION;49;14500;7200;192;25;61;63;8400;3000;3789;3788;1;13002;22.54;28.54;31,7;BCS1388054;6;13
001072;16.12.2019;14:43:10;Stop          ;15.02.2018;FEY;;LION;49;14500;7200;192;26;10;10;8400;3000;3360;3359;1;13002;30.24;32.74;31,7;BCS1388054;6;13
001072;16.12.2019;14:44:21;Charge to 90% ;15.02.2018;FEY;;LION;49;14500;7200;192;26;10;10;8400;3000;3360;3359;1;13002;30.24;32.54;31,9;BCS1388054;6;13
001072;16.12.2019;20:54:26;Stop          ;15.02.2018;FEY;;LION;49;14500;7200;192;26;84;90;8400;3000;4030;4027;1;13003;32.14;33.54;32,1;BCS1388054;6;13
001072;17.12.2019;08:37:58;Fastcharge    ;15.02.2018;FEY;;LION;49;14500;7200;192;26;83;88;8400;3000;4023;4020;1;13003;26.54;29.14;31,6;BCS1388054;6;13
001072;17.12.2019;13:38:40;Charge to 10% ;15.02.2018;FEY;;LION;49;14500;7200;224;26;94;100;8400;;4153;4149;1;13004;26.84;29.24;30,8;BCS1388054;6;13
001072;17.12.2019;20:41:41;Stop          ;15.02.2018;FEY;;LION;49;14500;7200;192;27;10;10;8400;3000;3357;3354;1;13002;34.34;35.84;32,6;BCS1388054;6;13
001072;18.12.2019;08:31:34;Fastcharge    ;15.02.2018;FEY;;LION;49;14500;7200;192;27;9;9;8400;3000;3366;3364;1;13003;26.64;29.34;31,6;BCS1388054;6;13
001072;18.12.2019;14:33:31;Stop          ;15.02.2018;FEY;;LION;49;14500;7200;224;27;94;100;8400;;4161;4155;1;13002;30.44;31.54;31,4;BCS1388054;6;13
001072;19.12.2019;08:24:06;Charge to 60% ;15.02.2018;FEY;;LION;49;14500;7200;224;27;96;100;8400;;4151;4145;1;13002;26.64;29.14;31,5;BCS1388054;6;13
001072;19.12.2019;11:34:24;Stop          ;15.02.2018;FEY;;LION;49;14500;7200;192;28;58;60;8400;3000;3774;3769;1;13002;33.94;35.74;33,5;BCS1388054;6;13
001072;19.12.2019;12:16:53;Cycle         ;15.02.2018;FEY;;LION;49;14500;7200;192;28;58;60;8400;3000;3782;3777;1;13003;30.64;31.54;32,7;BCS1388054;6;13
001072;20.12.2019;17:31:05;Stop          ;15.02.2018;FEY;;LION;49;14500;7200;224;29;95;100;8400;;4155;4152;1;13004;26.94;29.24;30,6;BCS1388054;6;13
001072;06.01.2020;06:34:58;Charge to 60% ;15.02.2018;FEY;;LION;49;14500;7200;192;29;93;98;8400;;4124;4122;1;13005;26.84;29.34;31,9;BCS1388054;6;13
001072;06.01.2020;09:30:42;Stop          ;15.02.2018;FEY;;LION;49;14500;7200;192;30;57;60;8400;3000;3762;3761;1;13004;33.44;38.84;33,7;BCS1388054;6;13
001072;06.01.2020;09:50:46;Fastcharge    ;15.02.2018;FEY;;LION;49;14500;7200;192;30;57;60;8400;3000;3775;3775;1;13004;31.84;32.24;32,7;BCS1388054;6;13
001072;06.01.2020;13:06:22;Stop          ;15.02.2018;FEY;;LION;49;14500;7200;224;30;95;100;8400;;4160;4158;1;13003;30.04;31.84;32,1;BCS1388054;6;13