Folder: Battery_sort_V2/reader/backup_20210408/Batterieverzeichnis_new (part 4)

File: 009700.txt
Serialnumber ; Date ; Time ; Action ; Date of Manufacture ; Manufacturer ; Battery Name ; Device-Chemistry ; Specification-Info ; Design-Capacity [mAh] ; Design-Voltage [mV] ; Battery Status ; Cycle Count ; SOC [%] ; Relativ SOC[%] ; Desired Voltage [mV]; Desired Current [mA]; Cell Voltage 1 [mV] ; Cell Voltage 2 [mV] ; Max_Error [%] ; Busvoltage[mV] ; Battery Temperature [°C] ; Charger Temperature [°C] ; Batterysystem ; Case ; PLace
009700;30.11.2020;09:42:55;Stop          ;04.12.2018;FEY;;LION;49;14500;7200;16576;4;97;100;;;4162;4161;1;13016;27.54;28.24;31,7;BCS1388054;7;12
009700;12.01.2021;04:16:00;Charge to 90% ;04.12.2018;FEY;;LION;49;14500;7200;16576;4;96;98;;;4138;4137;1;12992;23.04;23.34;23,0;BCS1388054;1;12
009700;12.01.2021;04:16:03;Stop          ;04.12.2018;FEY;;LION;49;14500;7200;16576;4;96;98;;;4138;4137;1;12993;23.04;23.84;23,0;BCS1388054;1;12
009700;12.01.2021;04:17:15;Charge to 90% ;04.12.2018;FEY;;LION;49;14500;7200;16576;4;96;98;;;4138;4138;1;12990;23.04;24.14;23,5;BCS1388054;1;12
009700;12.01.2021;04:55:18;Stop          ;04.12.2018;FEY;;LION;49;14500;7200;192;4;88;90;8400;3000;4039;4039;1;12986;27.64;29.94;31,7;BCS1388054;1;12
009700;12.01.2021;05:21:33;Cycle         ;04.12.2018;FEY;;LION;49;14500;7200;192;4;88;90;8400;3000;4059;4059;1;12988;26.94;27.24;30,6;BCS1388054;1;12
009700;13.01.2021;08:18:34;Stop          ;04.12.2018;FEY;;LION;49;14500;7200;224;6;97;100;8400;;4152;4152;1;12987;26.44;27.24;30,7;BCS1388054;1;12
009700;06.04.2021;08:39:21;Normalcharge  ;04.12.2018;FEY;;LION;49;14500;7200;192;6;91;94;8400;3000;4077;4077;1;13028;21.34;24.64;28,1;BCS1388054;7;6
009700;06.04.2021;08:40:08;Stop          ;04.12.2018;FEY;;LION;49;14500;7200;128;6;91;94;8400;3000;4135;4111;1;12950;21.34;26.04;28,5;BCS1388054;7;6

File: 009712.txt
Serialnumber ; Date ; Time ; Action ; Date of Manufacture ; Manufacturer ; Battery Name ; Device-Chemistry ; Specification-Info ; Design-Capacity [mAh] ; Design-Voltage [mV] ; Battery Status ; Cycle Count ; SOC [%] ; Relativ SOC[%] ; Desired Voltage [mV]; Desired Current [mA]; Cell Voltage 1 [mV] ; Cell Voltage 2 [mV] ; Max_Error [%] ; Busvoltage[mV] ; Battery Temperature [°C] ; Charger Temperature [°C] ; Batterysystem ; Case ; PLace
009712;29.11.2020;04:25:09;Cycle         ;04.12.2018;FEY;;LION;49;14500;7200;192;4;68;69;8400;3000;3845;3846;1;12995;25.14;25.64;25,6;BCS1388054;1;2
009712;12.01.2021;04:16:00;Charge to 90% ;04.12.2018;FEY;;LION;49;14500;7200;224;5;95;99;8400;;4128;4129;1;13004;22.94;17.04;23,0;BCS1388054;1;15
009712;12.01.2021;04:16:03;Stop          ;04.12.2018;FEY;;LION;49;14500;7200;224;5;95;99;8400;;4128;4129;1;13005;22.94;23.84;23,0;BCS1388054;1;15
009712;12.01.2021;04:17:15;Charge to 90% ;04.12.2018;FEY;;LION;49;14500;7200;224;5;95;99;8400;;4128;4128;1;13003;23.04;24.64;23,5;BCS1388054;1;15
009712;12.01.2021;04:55:18;Stop          ;04.12.2018;FEY;;LION;49;14500;7200;192;5;83;90;8400;3000;4028;4029;1;12994;26.74;36.74;31,7;BCS1388054;1;15
009712;12.01.2021;05:21:33;Cycle         ;04.12.2018;FEY;;LION;49;14500;7200;192;5;83;90;8400;3000;4050;4051;1;12996;26.74;29.64;30,6;BCS1388054;1;15
009712;13.01.2021;08:18:34;Stop          ;04.12.2018;FEY;;LION;49;14500;7200;224;7;95;100;8400;;4155;4155;1;12995;26.64;29.44;30,7;BCS1388054;1;15
009712;21.02.2021;13:43:19;Normalcharge  ;04.12.2018;FEY;;LION;49;14500;7200;192;7;54;57;8400;3000;3720;3720;1;13004;23.74;24.64;27,5;BCS1388054;1;13
009712;22.02.2021;17:08:49;Stop          ;04.12.2018;FEY;;LION;49;14500;7200;224;7;94;100;8400;;4148;4147;1;13004;26.14;26.74;30,0;BCS1388054;1;13
009712;06.04.2021;08:38:50;Normalcharge  ;04.12.2018;FEY;;LION;49;14500;7200;224;7;92;99;8400;;4128;4127;1;13008;20.74;24.44;28,1;BCS1388054;3;4
009712;06.04.2021;08:39:42;Stop           ;04.12.2018;FEY;;LION;49;14500;7200;224;7;92;99;8400;;4128;4127;1;13007;20.84;24.84;28,2;BCS1388054;3;4

File: 009717.txt
Serialnumber ; Date ; Time ; Action ; Date of Manufacture ; Manufacturer ; Battery Name ; Device-Chemistry ; Specification-Info ; Design-Capacity [mAh] ; Design-Voltage [mV] ; Battery Status ; Cycle Count ; SOC [%] ; Relativ SOC[%] ; Desired Voltage [mV]; Desired Current [mA]; Cell Voltage 1 [mV] ; Cell Voltage 2 [mV] ; Max_Error [%] ; Busvoltage[mV] ; Battery Temperature [°C] ; Charger Temperature [°C] ; Batterysystem ; Case ; PLace
009717;07.12.2020;04:14:21;Cycle         ;04.12.2018;FEY;;LION;49;14500;7200;16576;2;98;99;;;4141;4141;1;13003;25.64;27.34;30,3;BCS1388054;2;16
009717;08.12.2020;16:19:44;Stop          ;04.12.2018;FEY;;LION;49;14500;7200;16576;2;98;99;;;4139;4139;1;13002;27.74;28.94;31,9;BCS1388054;2;16
009717;12.01.2021;04:17:47;Charge to 90% ;04.12.2018;FEY;;LION;49;14500;7200;16576;2;97;98;;;4125;4125;1;13030;23.04;24.04;23,8;BCS1388054;7;10
009717;12.01.2021;04:57:20;Stop          ;04.12.2018;FEY;;LION;49;14500;7200;192;2;90;90;8400;3000;4049;4049;1;13025;26.44;28.84;31,5;BCS1388054;7;10
009717;12.01.2021;05:22:01;Cycle         ;04.12.2018;FEY;;LION;49;14500;7200;192;2;90;90;8400;3000;4055;4055;1;13026;26.54;27.34;30,4;BCS1388054;7;10
009717;13.01.2021;08:19:29;Stop          ;04.12.2018;FEY;;LION;49;14500;7200;224;3;98;100;8400;;4155;4156;1;13026;26.54;27.44;30,7;BCS1388054;7;10
009717;21.02.2021;13:44:56;Normalcharge  ;04.12.2018;FEY;;LION;49;14500;7200;192;4;52;53;8400;3000;3673;3673;1;13020;22.74;23.24;27,7;BCS1388054;5;18
009717;21.02.2021;19:31:36;Stop          ;04.12.2018;FEY;;LION;49;14500;7200;224;4;99;100;8400;;4154;4155;1;13016;26.84;28.04;30,6;BCS1388054;5;18
009717;06.04.2021;08:39:03;Normalcharge  ;04.12.2018;FEY;;LION;49;14500;7200;224;4;97;99;8400;;4127;4127;1;13019;21.24;24.94;28,1;BCS1388054;4;4
009717;06.04.2021;08:39:53;Stop          ;04.12.2018;FEY;;LION;49;14500;7200;224;4;97;99;8400;;4127;4127;1;13017;21.24;25.24;28,4;BCS1388054;4;4

File: 009722.txt
Serialnumber ; Date ; Time ; Action ; Date of Manufacture ; Manufacturer ; Battery Name ; Device-Chemistry ; Specification-Info ; Design-Capacity [mAh] ; Design-Voltage [mV] ; Battery Status ; Cycle Count ; SOC [%] ; Relativ SOC[%] ; Desired Voltage [mV]; Desired Current [mA]; Cell Voltage 1 [mV] ; Cell Voltage 2 [mV] ; Max_Error [%] ; Busvoltage[mV] ; Battery Temperature [°C] ; Charger Temperature [°C] ; Batterysystem ; Case ; PLace
009722;07.12.2020;04:14:28;Cycle         ;04.12.2018;FEY;;LION;49;14500;7200;192;2;97;98;8400;;4144;4145;1;12992;25.74;28.84;30,3;BCS1388054;4;2
009722;08.12.2020;16:19:56;Stop          ;04.12.2018;FEY;;LION;49;14500;7200;192;2;97;98;8400;;4142;4143;1;12991;27.94;30.34;31,9;BCS1388054;4;2
009722;12.01.2021;04:17:47;Charge to 90% ;04.12.2018;FEY;;LION;49;14500;7200;192;2;96;97;8400;;4127;4128;1;13024;23.14;23.84;23,8;BCS1388054;7;12
009722;12.01.2021;04:57:20;Stop          ;04.12.2018;FEY;;LION;49;14500;7200;192;2;90;90;8400;3000;4061;4061;1;13019;27.24;27.74;31,5;BCS1388054;7;12
009722;12.01.2021;05:22:01;Cycle         ;04.12.2018;FEY;;LION;49;14500;7200;192;2;90;90;8400;3000;4065;4065;1;13019;26.74;26.54;30,4;BCS1388054;7;12
009722;13.01.2021;08:19:29;Stop          ;04.12.2018;FEY;;LION;49;14500;7200;224;4;97;100;8400;;4155;4156;1;13019;26.34;26.94;30,7;BCS1388054;7;12
009722;21.02.2021;13:43:19;Normalcharge  ;04.12.2018;FEY;;LION;49;14500;7200;192;4;47;49;8400;3000;3648;3649;1;12995;23.74;25.04;27,5;BCS1388054;1;4
009722;22.02.2021;17:08:49;Stop          ;04.12.2018;FEY;;LION;49;14500;7200;224;4;97;100;8400;;4147;4148;1;12995;26.24;26.64;30,0;BCS1388054;1;4
009722;06.04.2021;08:39:16;Normalcharge  ;04.12.2018;FEY;;LION;49;14500;7200;224;4;96;99;8400;;4127;4127;1;13005;21.44;25.64;28,1;BCS1388054;6;9
009722;06.04.2021;08:40:03;Stop          ;04.12.2018;FEY;;LION;49;14500;7200;224;4;96;99;8400;;4126;4127;1;12984;21.54;25.74;28,5;BCS1388054;6;9

File: 009732.txt
Serialnumber ; Date ; Time ; Action ; Date of Manufacture ; Manufacturer ; Battery Name ; Device-Chemistry ; Specification-Info ; Design-Capacity [mAh] ; Design-Voltage [mV] ; Battery Status ; Cycle Count ; SOC [%] ; Relativ SOC[%] ; Desired Voltage [mV]; Desired Current [mA]; Cell Voltage 1 [mV] ; Cell Voltage 2 [mV] ; Max_Error [%] ; Busvoltage[mV] ; Battery Temperature [°C] ; Charger Temperature [°C] ; Batterysystem ; Case ; PLace
009732;07.12.2020;04:14:40;Cycle         ;04.12.2018;FEY;;LION;49;14500;7200;192;2;96;97;8400;;4134;4135;1;13021;25.64;26.24;30,3;BCS1388054;7;6
009732;08.12.2020;16:20:20;Stop          ;04.12.2018;FEY;;LION;49;14500;7200;192;2;96;97;8400;;4132;4133;1;13023;27.44;27.54;31,9;BCS1388054;7;6
009732;12.01.2021;04:17:47;Charge to 90% ;04.12.2018;FEY;;LION;49;14500;7200;192;2;95;96;8400;;4120;4121;1;13036;23.04;24.44;23,8;BCS1388054;7;8
009732;12.01.2021;04:57:19;Stop          ;04.12.2018;FEY;;LION;49;14500;7200;192;3;90;90;8400;3000;4061;4061;1;13030;26.34;29.54;31,5;BCS1388054;7;8
009732;12.01.2021;05:22:01;Cycle         ;04.12.2018;FEY;;LION;49;14500;7200;192;3;90;90;8400;3000;4065;4065;1;13031;26.54;28.34;30,4;BCS1388054;7;8
009732;13.01.2021;08:19:29;Stop          ;04.12.2018;FEY;;LION;49;14500;7200;224;4;96;100;8400;;4155;4156;1;13031;26.74;28.34;30,7;BCS1388054;7;8
009732;21.02.2021;13:44:56;Normalcharge  ;04.12.2018;FEY;;LION;49;14500;7200;192;5;40;42;8400;3000;3611;3611;1;13013;22.64;23.24;27,7;BCS1388054;5;16
009732;21.02.2021;19:31:36;Stop          ;04.12.2018;FEY;;LION;49;14500;7200;224;5;96;100;8400;;4158;4157;1;13009;27.44;28.24;30,6;BCS1388054;5;16
009732;06.04.2021;08:39:03;Normalcharge  ;04.12.2018;FEY;;LION;49;14500;7200;224;5;96;99;8400;;4128;4128;1;12998;21.24;25.14;28,1;BCS1388054;4;5
009732;06.04.2021;08:39:53;Stop          ;04.12.2018;FEY;;LION;49;14500;7200;224;5;96;99;8400;;4128;4127;1;12996;21.34;25.44;28,4;BCS1388054;4;5

File: 009736.txt
Serialnumber ; Date ; Time ; Action ; Date of Manufacture ; Manufacturer ; Battery Name ; Device-Chemistry ; Specification-Info ; Design-Capacity [mAh] ; Design-Voltage [mV] ; Battery Status ; Cycle Count ; SOC [%] ; Relativ SOC[%] ; Desired Voltage [mV]; Desired Current [mA]; Cell Voltage 1 [mV] ; Cell Voltage 2 [mV] ; Max_Error [%] ; Busvoltage[mV] ; Battery Temperature [°C] ; Charger Temperature [°C] ; Batterysystem ; Case ; PLace
009736;07.12.2020;04:14:32;Cycle         ;04.12.2018;FEY;;LION;49;14500;7200;16576;4;98;98;;;4152;4151;1;13003;25.84;27.44;30,3;BCS1388054;5;1
009736;08.12.2020;16:20:01;Stop          ;04.12.2018;FEY;;LION;49;14500;7200;16576;4;98;98;;;4149;4149;1;13002;27.94;29.04;31,7;BCS1388054;5;1
009736;12.01.2021;04:17:47;Charge to 90% ;04.12.2018;FEY;;LION;49;14500;7200;16576;4;97;97;;;4132;4131;1;13023;23.14;23.04;23,8;BCS1388054;7;11
009736;12.01.2021;04:57:20;Stop          ;04.12.2018;FEY;;LION;49;14500;7200;192;4;90;90;8400;3000;4059;4059;1;13018;26.74;27.34;31,5;BCS1388054;7;11
009736;12.01.2021;05:22:01;Cycle         ;04.12.2018;FEY;;LION;49;14500;7200;192;4;90;90;8400;3000;4065;4065;1;13019;26.74;26.14;30,4;BCS1388054;7;11
009736;13.01.2021;08:19:29;Stop          ;04.12.2018;FEY;;LION;49;14500;7200;224;5;98;100;8400;;4155;4156;1;13018;26.54;26.24;30,7;BCS1388054;7;11
009736;06.04.2021;08:39:21;Normalcharge  ;04.12.2018;FEY;;LION;49;14500;7200;192;5;95;98;8400;;4114;4114;1;13036;21.44;25.54;28,1;BCS1388054;7;5
009736;06.04.2021;08:40:08;Stop          ;04.12.2018;FEY;;LION;49;14500;7200;192;5;95;98;8400;;4114;4114;1;12958;21.44;25.84;28,5;BCS1388054;7;5

File: 009750.txt
Serialnumber ; Date ; Time ; Action ; Date of Manufacture ; Manufacturer ; Battery Name ; Device-Chemistry ; Specification-Info ; Design-Capacity [mAh] ; Design-Voltage [mV] ; Battery Status ; Cycle Count ; SOC [%] ; Relativ SOC[%] ; Desired Voltage [mV]; Desired Current [mA]; Cell Voltage 1 [mV] ; Cell Voltage 2 [mV] ; Max_Error [%] ; Busvoltage[mV] ; Battery Temperature [°C] ; Charger Temperature [°C] ; Batterysystem ; Case ; PLace
009750;07.12.2020;04:14:40;Cycle         ;04.12.2018;FEY;;LION;49;14500;7200;192;2;95;97;8400;;4125;4129;1;13020;25.64;27.54;30,3;BCS1388054;7;3
009750;08.12.2020;16:20:20;Stop          ;04.12.2018;FEY;;LION;49;14500;7200;192;2;95;98;8400;;4124;4127;1;13021;27.64;28.94;31,9;BCS1388054;7;3
009750;07.02.2021;08:47:07;Normalcharge  ;04.12.2018;FEY;;LION;49;14500;7200;192;3;72;74;8400;3000;3887;3889;1;12998;23.64;26.44;29,2;BCS1388054;5;7
009750;07.02.2021;11:50:11;Stop          ;04.12.2018;FEY;;LION;49;14500;7200;224;3;98;100;8400;;4163;4168;1;12997;26.24;28.44;30,0;BCS1388054;5;7
009750;03.03.2021;08:17:35;Normalcharge  ;04.12.2018;FEY;;LION;49;14500;7200;192;3;74;77;8400;3000;3912;3914;1;13015;23.14;23.44;23,6;BCS1388054;5;9
009750;03.03.2021;11:26:36;Stop          ;04.12.2018;FEY;;LION;49;14500;7200;224;3;97;100;8400;;4158;4161;1;13010;28.94;29.44;31,5;BCS1388054;5;9
009750;06.04.2021;08:38:50;Normalcharge  ;04.12.2018;FEY;;LION;49;14500;7200;224;3;96;99;8400;;4134;4136;1;13006;20.64;24.14;28,1;BCS1388054;3;16
009750;06.04.2021;08:39:42;Stop           ;04.12.2018;FEY;;LION;49;14500;7200;224;3;96;99;8400;;4134;4136;1;13005;20.74;24.34;28,2;BCS1388054;3;16

File: 009753.txt
Serialnumber ; Date ; Time ; Action ; Date of Manufacture ; Manufacturer ; Battery Name ; Device-Chemistry ; Specification-Info ; Design-Capacity [mAh] ; Design-Voltage [mV] ; Battery Status ; Cycle Count ; SOC [%] ; Relativ SOC[%] ; Desired Voltage [mV]; Desired Current [mA]; Cell Voltage 1 [mV] ; Cell Voltage 2 [mV] ; Max_Error [%] ; Busvoltage[mV] ; Battery Temperature [°C] ; Charger Temperature [°C] ; Batterysystem ; Case ; PLace
009753;07.12.2020;04:14:36;Cycle         ;04.12.2018;FEY;;LION;49;14500;7200;16576;4;97;98;;;4152;4154;1;13003;25.64;27.04;30,3;BCS1388054;6;4
009753;08.12.2020;16:20:13;Stop          ;04.12.2018;FEY;;LION;49;14500;7200;16576;4;97;99;;;4149;4151;1;13003;27.74;28.54;31,9;BCS1388054;6;4
009753;07.02.2021;08:47:00;Normalcharge  ;04.12.2018;FEY;;LION;49;14500;7200;16576;4;90;92;;;4071;4072;1;13016;23.44;26.04;29,2;BCS1388054;4;16
009753;07.02.2021;11:52:20;Stop          ;04.12.2018;FEY;;LION;49;14500;7200;16576;4;90;92;;;4071;4073;1;13016;25.84;27.24;29,7;BCS1388054;4;16
009753;03.03.2021;08:17:29;Normalcharge  ;04.12.2018;FEY;;LION;49;14500;7200;192;4;85;87;8400;3000;4020;4022;1;13011;23.14;23.74;23,5;BCS1388054;4;12
009753;03.03.2021;10:32:46;Stop          ;04.12.2018;FEY;;LION;49;14500;7200;224;4;98;100;8400;;4155;4158;1;13008;28.04;28.04;32,0;BCS1388054;4;12
009753;04.04.2021;11:50:22;Normalcharge  ;04.12.2018;FEY;;LION;49;14500;7200;192;5;50;52;8400;3000;3672;3673;1;13011;25.14;25.84;27,9;BCS1388054;4;8
009753;04.04.2021;11:51:36;Stop          ;04.12.2018;FEY;;LION;49;14500;7200;128;5;51;53;8400;3000;3758;3710;1;12722;25.14;28.64;28,6;BCS1388054;4;8
009753;05.04.2021;09:38:11;Charge to 60% ;04.12.2018;FEY;;LION;49;14500;7200;192;5;51;53;8400;3000;3674;3674;1;13019;25.04;26.54;26,3;BCS1388054;4;16
009753;05.04.2021;10:13:52;Stop          ;04.12.2018;FEY;;LION;49;14500;7200;192;5;57;60;8400;3000;3753;3754;1;13015;27.84;30.64;32,1;BCS1388054;4;16

File: 009755.txt
Serialnumber ; Date ; Time ; Action ; Date of Manufacture ; Manufacturer ; Battery Name ; Device-Chemistry ; Specification-Info ; Design-Capacity [mAh] ; Design-Voltage [mV] ; Battery Status ; Cycle Count ; SOC [%] ; Relativ SOC[%] ; Desired Voltage [mV]; Desired Current [mA]; Cell Voltage 1 [mV] ; Cell Voltage 2 [mV] ; Max_Error [%] ; Busvoltage[mV] ; Battery Temperature [°C] ; Charger Temperature [°C] ; Batterysystem ; Case ; PLace
009755;12.01.2021;04:16:00;Charge to 90% ;04.12.2018;FEY;;LION;49;14500;7200;16576;2;98;98;;;4131;4131;1;13013;23.24;22.34;23,0;BCS1388054;1;6
009755;12.01.2021;04:16:03;Stop          ;04.12.2018;FEY;;LION;49;14500;7200;16576;2;98;98;;;4131;4131;1;13013;23.24;23.64;23,0;BCS1388054;1;6
009755;12.01.2021;04:17:15;Charge to 90% ;04.12.2018;FEY;;LION;49;14500;7200;16576;2;98;98;;;4131;4132;1;13011;23.34;24.14;23,5;BCS1388054;1;6
009755;12.01.2021;04:55:18;Stop          ;04.12.2018;FEY;;LION;49;14500;7200;192;2;90;90;8400;3000;3949;3999;1;13006;27.34;31.54;31,7;BCS1388054;1;6
009755;12.01.2021;05:21:33;Cycle         ;04.12.2018;FEY;;LION;49;14500;7200;192;2;90;90;8400;3000;4054;4054;1;13007;27.24;27.34;30,6;BCS1388054;1;6
009755;13.01.2021;08:18:34;Stop          ;04.12.2018;FEY;;LION;49;14500;7200;224;3;97;99;8400;;4154;4155;1;13006;26.74;27.34;30,7;BCS1388054;1;6
009755;06.04.2021;08:38:50;Normalcharge  ;04.12.2018;FEY;;LION;49;14500;7200;192;3;95;98;8400;;4115;4115;1;13005;20.94;24.04;28,1;BCS1388054;3;11
009755;06.04.2021;08:39:42;Stop           ;04.12.2018;FEY;;LION;49;14500;7200;192;3;95;98;8400;;4115;4115;1;13003;21.04;24.24;28,2;BCS1388054;3;11

File: 009758.txt
Serialnumber ; Date ; Time ; Action ; Date of Manufacture ; Manufacturer ; Battery Name ; Device-Chemistry ; Specification-Info ; Design-Capacity [mAh] ; Design-Voltage [mV] ; Battery Status ; Cycle Count ; SOC [%] ; Relativ SOC[%] ; Desired Voltage [mV]; Desired Current [mA]; Cell Voltage 1 [mV] ; Cell Voltage 2 [mV] ; Max_Error [%] ; Busvoltage[mV] ; Battery Temperature [°C] ; Charger Temperature [°C] ; Batterysystem ; Case ; PLace
009758;07.02.2021;08:47:00;Normalcharge  ;04.12.2018;FEY;;LION;49;14500;7200;192;3;90;92;8400;3000;4063;4063;1;13007;23.74;25.04;29,2;BCS1388054;4;12
009758;07.02.2021;11:52:20;Stop          ;04.12.2018;FEY;;LION;49;14500;7200;224;3;98;100;8400;;4150;4150;1;13008;25.74;25.74;29,7;BCS1388054;4;12
009758;03.03.2021;08:17:46;Normalcharge  ;04.12.2018;FEY;;LION;49;14500;7200;2768;5;;;8400;3000;3046;3070;1;13027;23.14;23.64;23,6;BCS1388054;7;17
009758;03.03.2021;10:54:05;Stop          ;04.12.2018;FEY;;LION;49;14500;7200;128;5;30;32;8400;3000;3675;3625;1;12689;30.24;36.44;31,4;BCS1388054;7;17
009758;16.03.2021;11:40:53;Normalcharge  ;04.12.2018;FEY;;LION;49;14500;7200;192;5;35;36;8400;3000;3575;3576;1;12999;23.94;24.24;25,1;BCS1388054;1;4
009758;16.03.2021;11:41:01;Stop          ;04.12.2018;FEY;;LION;49;14500;7200;192;5;35;36;8400;3000;3575;3575;1;12999;23.94;24.24;25,1;BCS1388054;1;4
009758;30.03.2021;10:23:45;Normalcharge  ;04.12.2018;FEY;;LION;49;14500;7200;192;5;35;36;8400;3000;3572;3573;1;12997;22.94;22.94;23,8;BCS1388054;1;4
009758;30.03.2021;10:24:57;Stop          ;04.12.2018;FEY;;LION;49;14500;7200;128;5;35;36;8400;3000;3661;3613;1;12970;22.94;25.94;24,4;BCS1388054;1;4

File: 009759.txt
Serialnumber ; Date ; Time ; Action ; Date of Manufacture ; Manufacturer ; Battery Name ; Device-Chemistry ; Specification-Info ; Design-Capacity [mAh] ; Design-Voltage [mV] ; Battery Status ; Cycle Count ; SOC [%] ; Relativ SOC[%] ; Desired Voltage [mV]; Desired Current [mA]; Cell Voltage 1 [mV] ; Cell Voltage 2 [mV] ; Max_Error [%] ; Busvoltage[mV] ; Battery Temperature [°C] ; Charger Temperature [°C] ; Batterysystem ; Case ; PLace
009759;30.11.2020;09:42:55;Stop          ;04.12.2018;FEY;;LION;49;14500;7200;16576;3;98;98;;;4133;4133;1;13032;27.64;28.74;31,7;BCS1388054;7;14
009759;12.01.2021;04:16:00;Charge to 90% ;04.12.2018;FEY;;LION;49;14500;7200;16576;3;96;97;;;4117;4117;1;13013;23.04;21.44;23,0;BCS1388054;1;7
009759;12.01.2021;04:16:03;Stop          ;04.12.2018;FEY;;LION;49;14500;7200;16576;3;96;97;;;4117;4117;1;13013;23.04;22.54;23,0;BCS1388054;1;7
009759;12.01.2021;04:17:15;Charge to 90% ;04.12.2018;FEY;;LION;49;14500;7200;16576;3;96;97;;;4117;4117;1;13011;23.04;23.24;23,5;BCS1388054;1;7
009759;12.01.2021;04:55:18;Stop          ;04.12.2018;FEY;;LION;49;14500;7200;192;3;90;90;8400;3000;4051;4050;1;13006;26.54;29.94;31,7;BCS1388054;1;7
009759;12.01.2021;05:21:33;Cycle         ;04.12.2018;FEY;;LION;49;14500;7200;192;3;90;90;8400;3000;4056;4055;1;13007;26.74;27.84;30,6;BCS1388054;1;7
009759;13.01.2021;08:18:34;Stop          ;04.12.2018;FEY;;LION;49;14500;7200;224;4;97;100;8400;;4155;4155;1;13007;26.84;27.74;30,7;BCS1388054;1;7
009759;21.02.2021;13:43:19;Normalcharge  ;04.12.2018;FEY;;LION;49;14500;7200;192;5;62;64;8400;3000;3785;3785;1;13001;23.64;25.04;27,5;BCS1388054;1;17
009759;22.02.2021;17:08:49;Stop          ;04.12.2018;FEY;;LION;49;14500;7200;224;5;98;100;8400;;4148;4149;1;13002;25.94;26.94;30,0;BCS1388054;1;17
009759;06.04.2021;08:38:50;Normalcharge  ;04.12.2018;FEY;;LION;49;14500;7200;224;5;96;99;8400;;4128;4128;1;13010;20.94;25.04;28,1;BCS1388054;3;5
009759;06.04.2021;08:39:42;Stop           ;04.12.2018;FEY;;LION;49;14500;7200;224;5;96;99;8400;;4128;4128;1;13008;21.04;25.24;28,2;BCS1388054;3;5

File: 009765.txt
Serialnumber ; Date ; Time ; Action ; Date of Manufacture ; Manufacturer ; Battery Name ; Device-Chemistry ; Specification-Info ; Design-Capacity [mAh] ; Design-Voltage [mV] ; Battery Status ; Cycle Count ; SOC [%] ; Relativ SOC[%] ; Desired Voltage [mV]; Desired Current [mA]; Cell Voltage 1 [mV] ; Cell Voltage 2 [mV] ; Max_Error [%] ; Busvoltage[mV] ; Battery Temperature [°C] ; Charger Temperature [°C] ; Batterysystem ; Case ; PLace
009765;07.12.2020;04:14:32;Cycle         ;04.12.2018;FEY;;LION;49;14500;7200;16576;3;97;98;;;4133;4132;1;13011;25.84;27.14;30,3;BCS1388054;5;17
009765;08.12.2020;16:20:01;Stop          ;04.12.2018;FEY;;LION;49;14500;7200;16576;3;97;98;;;4131;4130;1;13011;27.94;28.74;31,7;BCS1388054;5;17
009765;07.02.2021;08:46:54;Normalcharge  ;04.12.2018;FEY;;LION;49;14500;7200;16576;3;94;95;;;4095;4094;1;13002;23.84;25.04;29,2;BCS1388054;3;12
009765;07.02.2021;11:52:16;Stop           ;04.12.2018;FEY;;LION;49;14500;7200;16576;3;94;95;;;4095;4094;1;13001;26.04;26.14;29,7;BCS1388054;3;12
009765;03.03.2021;08:17:40;Normalcharge  ;04.12.2018;FEY;;LION;49;14500;7200;192;3;71;72;8400;3000;3873;3872;1;13005;23.34;22.74;23,6;BCS1388054;6;5
009765;03.03.2021;11:56:52;Stop          ;04.12.2018;FEY;;LION;49;14500;7200;224;3;99;100;8400;;4158;4157;1;12998;28.04;27.74;31,7;BCS1388054;6;5
009765;06.04.2021;08:38:46;Normalcharge  ;04.12.2018;FEY;;LION;49;14500;7200;224;3;97;99;8400;;4132;4132;1;13018;20.84;25.34;28,1;BCS1388054;2;9
009765;06.04.2021;08:39:36;Stop          ;04.12.2018;FEY;;LION;49;14500;7200;224;3;97;99;8400;;4133;4132;1;13015;20.94;25.54;28,2;BCS1388054;2;9

File: 009776.txt
Serialnumber ; Date ; Time ; Action ; Date of Manufacture ; Manufacturer ; Battery Name ; Device-Chemistry ; Specification-Info ; Design-Capacity [mAh] ; Design-Voltage [mV] ; Battery Status ; Cycle Count ; SOC [%] ; Relativ SOC[%] ; Desired Voltage [mV]; Desired Current [mA]; Cell Voltage 1 [mV] ; Cell Voltage 2 [mV] ; Max_Error [%] ; Busvoltage[mV] ; Battery Temperature [°C] ; Charger Temperature [°C] ; Batterysystem ; Case ; PLace
009776;12.01.2021;04:17:28;Ladung auf 90% ;04.12.2018;FEY;;LION;49;14500;7200;16576;3;95;97;;;4136;4136;1;13010;23.34;24.34;23,6;BCS1388054;3;13
009776;12.01.2021;04:57:30;Stop           ;04.12.2018;FEY;;LION;49;14500;7200;192;3;88;90;8400;3000;4063;4061;1;13005;27.34;31.74;31,5;BCS1388054;3;13
009776;12.01.2021;05:21:45;Cycle          ;04.12.2018;FEY;;LION;49;14500;7200;192;3;88;90;8400;3000;4068;4067;1;13006;27.34;29.54;30,4;BCS1388054;3;13
009776;13.01.2021;08:23:25;Stop           ;04.12.2018;FEY;;LION;49;14500;7200;224;4;97;100;8400;;4156;4155;1;13005;27.34;29.34;31,4;BCS1388054;3;13
009776;03.03.2021;08:17:46;Normalcharge  ;04.12.2018;FEY;;LION;49;14500;7200;192;5;31;33;8400;3000;3565;3563;1;13029;23.34;23.94;23,6;BCS1388054;7;10
009776;03.03.2021;10:54:05;Stop          ;04.12.2018;FEY;;LION;49;14500;7200;128;5;64;67;8400;3000;3915;3865;1;12694;30.94;34.74;31,4;BCS1388054;7;10
009776;03.03.2021;10:55:49;Normalcharge  ;04.12.2018;FEY;;LION;49;14500;7200;192;5;64;67;8400;3000;3832;3831;1;13025;30.84;32.14;30,6;BCS1388054;7;10
009776;03.03.2021;17:03:24;Stop          ;04.12.2018;FEY;;LION;49;14500;7200;224;5;98;100;8400;;4153;4154;1;13024;26.54;27.74;31,4;BCS1388054;7;10
009776;04.04.2021;11:50:28;Normalcharge  ;04.12.2018;FEY;;LION;49;14500;7200;224;5;96;99;8400;;4131;4132;1;12996;25.24;25.54;27,9;BCS1388054;3;6
009776;04.04.2021;11:51:43;Stop           ;04.12.2018;FEY;;LION;49;14500;7200;224;5;96;99;8400;;4131;4132;1;12781;25.24;25.74;28,6;BCS1388054;3;6

File: 009779.txt
Serialnumber ; Date ; Time ; Action ; Date of Manufacture ; Manufacturer ; Battery Name ; Device-Chemistry ; Specification-Info ; Design-Capacity [mAh] ; Design-Voltage [mV] ; Battery Status ; Cycle Count ; SOC [%] ; Relativ SOC[%] ; Desired Voltage [mV]; Desired Current [mA]; Cell Voltage 1 [mV] ; Cell Voltage 2 [mV] ; Max_Error [%] ; Busvoltage[mV] ; Battery Temperature [°C] ; Charger Temperature [°C] ; Batterysystem ; Case ; PLace
009779;07.12.2020;04:14:28;Cycle         ;04.12.2018;FEY;;LION;49;14500;7200;16576;4;94;98;;;4141;4141;1;12994;25.64;27.24;30,3;BCS1388054;4;5
009779;08.12.2020;16:19:56;Stop          ;04.12.2018;FEY;;LION;49;14500;7200;16576;4;94;98;;;4138;4138;1;12993;27.64;28.44;31,9;BCS1388054;4;5
009779;07.02.2021;08:46:54;Normalcharge  ;04.12.2018;FEY;;LION;49;14500;7200;16576;4;91;95;;;4100;4100;1;13010;23.44;25.54;29,2;BCS1388054;3;15
009779;07.02.2021;11:52:16;Stop           ;04.12.2018;FEY;;LION;49;14500;7200;16576;4;91;95;;;4100;4100;1;13010;25.84;27.24;29,7;BCS1388054;3;15
009779;03.03.2021;08:17:40;Normalcharge  ;04.12.2018;FEY;;LION;49;14500;7200;192;4;66;68;8400;3000;3851;3850;1;12989;23.14;22.54;23,6;BCS1388054;6;16
009779;03.03.2021;11:56:52;Stop          ;04.12.2018;FEY;;LION;49;14500;7200;224;4;97;100;8400;;4158;4158;1;12982;28.64;28.34;31,7;BCS1388054;6;16
009779;06.04.2021;08:39:03;Normalcharge  ;04.12.2018;FEY;;LION;49;14500;7200;2768;5;;;8400;3000;3131;3106;1;13010;25.14;25.04;28,1;BCS1388054;4;13
009779;06.04.2021;08:39:53;Stop          ;04.12.2018;FEY;;LION;49;14500;7200;2768;5;;;8400;3000;3131;3106;1;13008;25.04;26.54;28,4;BCS1388054;4;13