Folder: Battery_sort_V2/reader/backup_20210408/Batterieverzeichnis_new (part 3)

File: 009590.txt
Serialnumber ; Date ; Time ; Action ; Date of Manufacture ; Manufacturer ; Battery Name ; Device-Chemistry ; Specification-Info ; Design-Capacity [mAh] ; Design-Voltage [mV] ; Battery Status ; Cycle Count ; SOC [%] ; Relativ SOC[%] ; Desired Voltage [mV]; Desired Current [mA]; Cell Voltage 1 [mV] ; Cell Voltage 2 [mV] ; Max_Error [%] ; Busvoltage[mV] ; Battery Temperature [°C] ; Charger Temperature [°C] ; Batterysystem ; Case ; PLace
009590;12.01.2021;04:17:33;Charge to 90% ;04.12.2018;FEY;;LION;49;14500;7200;16576;3;96;96;;;4113;4112;1;13005;22.94;23.34;23,6;BCS1388054;4;15
009590;12.01.2021;04:57:16;Stop          ;04.12.2018;FEY;;LION;49;14500;7200;192;3;91;90;8400;3000;4060;4059;1;13000;26.34;29.34;31,6;BCS1388054;4;15
009590;12.01.2021;05:21:49;Cycle         ;04.12.2018;FEY;;LION;49;14500;7200;192;3;91;90;8400;3000;4063;4062;1;13002;26.74;28.14;30,4;BCS1388054;4;15
009590;13.01.2021;08:19:19;Stop          ;04.12.2018;FEY;;LION;49;14500;7200;224;4;99;100;8400;;4155;4156;1;13001;27.04;28.14;30,7;BCS1388054;4;15
009590;21.02.2021;13:43:32;Normalcharge  ;04.12.2018;FEY;;LION;49;14500;7200;192;5;60;61;8400;3000;3759;3757;1;13003;23.04;25.34;27,5;BCS1388054;2;4
009590;21.02.2021;19:27:00;Stop          ;04.12.2018;FEY;;LION;49;14500;7200;224;5;99;100;8400;;4154;4156;1;13003;26.74;28.24;31,1;BCS1388054;2;4
009590;06.04.2021;08:39:10;Normalcharge  ;04.12.2018;FEY;;LION;49;14500;7200;224;5;98;99;8400;;4128;4129;1;13014;21.44;25.64;28,1;BCS1388054;5;2
009590;06.04.2021;08:39:58;Stop          ;04.12.2018;FEY;;LION;49;14500;7200;224;5;98;99;8400;;4128;4129;1;13014;21.44;26.14;28,4;BCS1388054;5;2

File: 009593.txt
Serialnumber ; Date ; Time ; Action ; Date of Manufacture ; Manufacturer ; Battery Name ; Device-Chemistry ; Specification-Info ; Design-Capacity [mAh] ; Design-Voltage [mV] ; Battery Status ; Cycle Count ; SOC [%] ; Relativ SOC[%] ; Desired Voltage [mV]; Desired Current [mA]; Cell Voltage 1 [mV] ; Cell Voltage 2 [mV] ; Max_Error [%] ; Busvoltage[mV] ; Battery Temperature [°C] ; Charger Temperature [°C] ; Batterysystem ; Case ; PLace
009593;07.12.2020;04:14:32;Cycle         ;04.12.2018;FEY;;LION;49;14500;7200;16576;2;99;98;;;4153;4154;1;13011;25.34;28.74;30,3;BCS1388054;5;2
009593;08.12.2020;16:20:01;Stop          ;04.12.2018;FEY;;LION;49;14500;7200;16576;2;99;98;;;4151;4151;1;13009;27.54;30.34;31,7;BCS1388054;5;2
009593;12.01.2021;04:17:36;Charge to 90% ;04.12.2018;FEY;;LION;49;14500;7200;16576;2;98;97;;;4134;4134;1;13021;22.74;24.64;23,6;BCS1388054;5;5
009593;12.01.2021;05:15:37;Stop          ;04.12.2018;FEY;;LION;49;14500;7200;192;2;91;90;8400;3000;4066;4066;1;13015;27.14;29.04;31,6;BCS1388054;5;5
009593;12.01.2021;05:21:53;Cycle         ;04.12.2018;FEY;;LION;49;14500;7200;192;2;91;90;8400;3000;4066;4067;1;13016;27.04;28.44;30,6;BCS1388054;5;5
009593;13.01.2021;08:31:10;Stop          ;04.12.2018;FEY;;LION;49;14500;7200;224;3;98;100;8400;;4156;4154;1;13015;26.54;28.44;31,1;BCS1388054;5;5
009593;21.02.2021;13:43:32;Normalcharge  ;04.12.2018;FEY;;LION;49;14500;7200;192;4;59;60;8400;3000;3737;3733;1;13005;22.94;26.14;27,5;BCS1388054;2;3
009593;21.02.2021;19:27:00;Stop          ;04.12.2018;FEY;;LION;49;14500;7200;224;4;99;100;8400;;4155;4155;1;13006;26.64;29.14;31,1;BCS1388054;2;3
009593;06.04.2021;08:39:10;Normalcharge  ;04.12.2018;FEY;;LION;49;14500;7200;224;4;97;99;8400;;4127;4127;1;13006;21.24;24.64;28,1;BCS1388054;5;1
009593;06.04.2021;08:39:58;Stop          ;04.12.2018;FEY;;LION;49;14500;7200;224;4;97;99;8400;;4127;4127;1;13006;21.34;25.04;28,4;BCS1388054;5;1

File: 009598.txt
Serialnumber ; Date ; Time ; Action ; Date of Manufacture ; Manufacturer ; Battery Name ; Device-Chemistry ; Specification-Info ; Design-Capacity [mAh] ; Design-Voltage [mV] ; Battery Status ; Cycle Count ; SOC [%] ; Relativ SOC[%] ; Desired Voltage [mV]; Desired Current [mA]; Cell Voltage 1 [mV] ; Cell Voltage 2 [mV] ; Max_Error [%] ; Busvoltage[mV] ; Battery Temperature [°C] ; Charger Temperature [°C] ; Batterysystem ; Case ; PLace
009598;07.12.2020;04:14:17;Cycle         ;04.12.2018;FEY;;LION;49;14500;7200;16576;4;99;100;;;4143;4141;1;12995;25.34;26.74;30,3;BCS1388054;1;5
009598;08.12.2020;16:19:38;Stop          ;04.12.2018;FEY;;LION;49;14500;7200;16576;4;99;100;;;4141;4139;1;12995;27.04;27.94;31,9;BCS1388054;1;5
009598;12.01.2021;04:17:40;Charge to 90% ;04.12.2018;FEY;;LION;49;14500;7200;16576;4;98;100;;;4126;4125;1;13015;22.74;24.04;23,6;BCS1388054;6;3
009598;12.01.2021;05:00:55;Stop          ;04.12.2018;FEY;;LION;49;14500;7200;192;4;86;90;8400;3000;4020;4018;1;13009;27.14;33.84;31,2;BCS1388054;6;3
009598;12.01.2021;05:21:57;Cycle         ;04.12.2018;FEY;;LION;49;14500;7200;192;4;86;90;8400;3000;4040;4038;1;13010;26.94;28.84;30,4;BCS1388054;6;3
009598;13.01.2021;08:31:18;Stop          ;04.12.2018;FEY;;LION;49;14500;7200;224;5;96;100;8400;;4155;4155;1;13011;26.54;28.84;31,1;BCS1388054;6;3
009598;21.02.2021;13:45:29;Normalcharge  ;04.12.2018;FEY;;LION;49;14500;7200;192;6;48;50;8400;3000;3665;3665;1;12988;22.44;22.24;27,8;BCS1388054;6;16
009598;06.04.2021;08:38:40;Normalcharge  ;04.12.2018;FEY;;LION;49;14500;7200;224;6;95;99;8400;;4126;4127;1;13011;20.84;25.04;28,1;BCS1388054;1;7
009598;06.04.2021;08:39:29;Stop          ;04.12.2018;FEY;;LION;49;14500;7200;224;6;95;99;8400;;4127;4127;1;13009;20.84;25.44;28,2;BCS1388054;1;7

File: 009599.txt
Serialnumber ; Date ; Time ; Action ; Date of Manufacture ; Manufacturer ; Battery Name ; Device-Chemistry ; Specification-Info ; Design-Capacity [mAh] ; Design-Voltage [mV] ; Battery Status ; Cycle Count ; SOC [%] ; Relativ SOC[%] ; Desired Voltage [mV]; Desired Current [mA]; Cell Voltage 1 [mV] ; Cell Voltage 2 [mV] ; Max_Error [%] ; Busvoltage[mV] ; Battery Temperature [°C] ; Charger Temperature [°C] ; Batterysystem ; Case ; PLace
009599;07.12.2020;04:14:28;Cycle         ;04.12.2018;FEY;;LION;49;14500;7200;192;2;95;98;8400;;4137;4139;1;13003;25.64;27.24;30,3;BCS1388054;4;17
009599;08.12.2020;16:19:56;Stop          ;04.12.2018;FEY;;LION;49;14500;7200;192;2;95;98;8400;;4135;4137;1;13003;27.64;28.74;31,9;BCS1388054;4;17
009599;12.01.2021;04:17:33;Charge to 90% ;04.12.2018;FEY;;LION;49;14500;7200;192;2;94;97;8400;;4122;4124;1;13021;23.04;24.24;23,6;BCS1388054;4;16
009599;12.01.2021;04:57:16;Stop          ;04.12.2018;FEY;;LION;49;14500;7200;192;2;88;90;8400;3000;4061;4062;1;13016;26.54;29.44;31,6;BCS1388054;4;16
009599;12.01.2021;05:21:49;Cycle         ;04.12.2018;FEY;;LION;49;14500;7200;192;2;88;90;8400;3000;4064;4065;1;13016;26.84;28.34;30,4;BCS1388054;4;16
009599;13.01.2021;08:19:19;Stop          ;04.12.2018;FEY;;LION;49;14500;7200;224;3;97;100;8400;;4155;4157;1;13017;27.14;28.44;30,7;BCS1388054;4;16
009599;21.02.2021;13:43:32;Normalcharge  ;04.12.2018;FEY;;LION;49;14500;7200;192;4;57;59;8400;3000;3733;3738;1;13002;23.24;25.94;27,5;BCS1388054;2;2
009599;21.02.2021;19:27:00;Stop          ;04.12.2018;FEY;;LION;49;14500;7200;224;4;97;100;8400;;4154;4155;1;13001;26.94;29.04;31,1;BCS1388054;2;2
009599;06.04.2021;08:39:10;Normalcharge  ;04.12.2018;FEY;;LION;49;14500;7200;224;4;95;99;8400;;4129;4129;1;13006;21.44;25.04;28,1;BCS1388054;5;14
009599;06.04.2021;08:39:58;Stop          ;04.12.2018;FEY;;LION;49;14500;7200;224;4;95;99;8400;;4129;4129;1;13006;21.44;25.34;28,4;BCS1388054;5;14

File: 009602.txt
Serialnumber ; Date ; Time ; Action ; Date of Manufacture ; Manufacturer ; Battery Name ; Device-Chemistry ; Specification-Info ; Design-Capacity [mAh] ; Design-Voltage [mV] ; Battery Status ; Cycle Count ; SOC [%] ; Relativ SOC[%] ; Desired Voltage [mV]; Desired Current [mA]; Cell Voltage 1 [mV] ; Cell Voltage 2 [mV] ; Max_Error [%] ; Busvoltage[mV] ; Battery Temperature [°C] ; Charger Temperature [°C] ; Batterysystem ; Case ; PLace
009602;12.01.2021;04:17:22;Charge to 90% ;04.12.2018;FEY;;LION;49;14500;7200;16576;4;97;98;;;4135;4132;1;13006;23.34;24.04;23,5;BCS1388054;2;17
009602;12.01.2021;04:54:21;Stop          ;04.12.2018;FEY;;LION;49;14500;7200;192;4;90;90;8400;3000;4051;4050;1;12999;27.14;32.24;31,9;BCS1388054;2;17
009602;12.01.2021;05:21:40;Cycle         ;04.12.2018;FEY;;LION;49;14500;7200;192;4;90;90;8400;3000;4062;4061;1;13001;27.44;28.74;30,6;BCS1388054;2;17
009602;13.01.2021;08:20:19;Stop          ;04.12.2018;FEY;;LION;49;14500;7200;224;5;97;100;8400;;4155;4155;1;13000;27.14;28.54;30,8;BCS1388054;2;17
009602;21.02.2021;13:43:49;Normalcharge  ;04.12.2018;FEY;;LION;49;14500;7200;224;5;96;99;8400;;4131;4131;1;13006;23.14;23.54;27,7;BCS1388054;3;12
009602;21.02.2021;20:44:52;Stop           ;04.12.2018;FEY;;LION;49;14500;7200;224;5;96;99;8400;;4132;4132;1;13002;26.64;27.04;31,2;BCS1388054;3;12
009602;06.04.2021;08:39:16;Normalcharge  ;04.12.2018;FEY;;LION;49;14500;7200;192;5;95;98;8400;;4116;4116;1;13011;21.44;25.84;28,1;BCS1388054;6;3
009602;06.04.2021;08:40:03;Stop          ;04.12.2018;FEY;;LION;49;14500;7200;192;5;95;98;8400;;4116;4116;1;12991;21.54;26.14;28,5;BCS1388054;6;3

File: 009647.txt
Serialnumber ; Date ; Time ; Action ; Date of Manufacture ; Manufacturer ; Battery Name ; Device-Chemistry ; Specification-Info ; Design-Capacity [mAh] ; Design-Voltage [mV] ; Battery Status ; Cycle Count ; SOC [%] ; Relativ SOC[%] ; Desired Voltage [mV]; Desired Current [mA]; Cell Voltage 1 [mV] ; Cell Voltage 2 [mV] ; Max_Error [%] ; Busvoltage[mV] ; Battery Temperature [°C] ; Charger Temperature [°C] ; Batterysystem ; Case ; PLace
009647;07.12.2020;04:14:25;Cycle          ;04.12.2018;FEY;;LION;49;14500;7200;192;3;98;98;8400;;4145;4146;1;12999;26.04;26.84;30,3;BCS1388054;3;12
009647;08.12.2020;16:19:50;Stop           ;04.12.2018;FEY;;LION;49;14500;7200;192;3;98;98;8400;;4143;4143;1;13000;27.94;28.44;31,9;BCS1388054;3;12
009647;12.01.2021;04:17:40;Charge to 90% ;04.12.2018;FEY;;LION;49;14500;7200;192;3;97;97;8400;;4128;4128;1;12987;23.24;22.64;23,6;BCS1388054;6;16
009647;12.01.2021;05:00:55;Stop          ;04.12.2018;FEY;;LION;49;14500;7200;192;4;92;90;8400;3000;4061;4060;1;12983;26.84;28.04;31,2;BCS1388054;6;16
009647;12.01.2021;05:21:57;Cycle         ;04.12.2018;FEY;;LION;49;14500;7200;192;4;92;90;8400;3000;4065;4064;1;12984;26.94;27.14;30,4;BCS1388054;6;16
009647;13.01.2021;08:31:18;Stop          ;04.12.2018;FEY;;LION;49;14500;7200;224;5;97;99;8400;;4156;4153;1;12983;27.04;27.04;31,1;BCS1388054;6;16
009647;03.03.2021;08:17:46;Normalcharge  ;04.12.2018;FEY;;LION;49;14500;7200;192;5;53;55;8400;3000;3700;3696;1;13034;23.24;24.24;23,6;BCS1388054;7;8
009647;03.03.2021;10:54:05;Stop          ;04.12.2018;FEY;;LION;49;14500;7200;128;5;85;88;8400;3000;4127;4077;1;12709;31.14;35.84;31,4;BCS1388054;7;8
009647;03.03.2021;10:55:49;Normalcharge  ;04.12.2018;FEY;;LION;49;14500;7200;192;5;85;88;8400;3000;4038;4036;1;13028;31.04;33.24;30,6;BCS1388054;7;8
009647;03.03.2021;17:03:24;Stop          ;04.12.2018;FEY;;LION;49;14500;7200;224;5;98;100;8400;;4152;4152;1;13029;26.64;28.54;31,4;BCS1388054;7;8
009647;04.04.2021;11:50:39;Normalcharge  ;04.12.2018;FEY;;LION;49;14500;7200;192;6;53;55;8400;3000;3696;3694;1;13004;25.14;27.54;28,1;BCS1388054;1;3
009647;04.04.2021;11:51:54;Stop          ;04.12.2018;FEY;;LION;49;14500;7200;128;6;54;55;8400;3000;3784;3734;1;12575;25.14;30.44;28,8;BCS1388054;1;3
009647;05.04.2021;09:37:37;Charge to 60% ;04.12.2018;FEY;;LION;49;14500;7200;192;6;54;55;8400;3000;3699;3696;1;12999;25.34;27.04;26,0;BCS1388054;1;15
009647;05.04.2021;10:01:53;Stop          ;04.12.2018;FEY;;LION;49;14500;7200;192;6;58;60;8400;3000;3764;3759;1;12995;27.24;32.24;31,2;BCS1388054;1;15

File: 009651.txt
Serialnumber ; Date ; Time ; Action ; Date of Manufacture ; Manufacturer ; Battery Name ; Device-Chemistry ; Specification-Info ; Design-Capacity [mAh] ; Design-Voltage [mV] ; Battery Status ; Cycle Count ; SOC [%] ; Relativ SOC[%] ; Desired Voltage [mV]; Desired Current [mA]; Cell Voltage 1 [mV] ; Cell Voltage 2 [mV] ; Max_Error [%] ; Busvoltage[mV] ; Battery Temperature [°C] ; Charger Temperature [°C] ; Batterysystem ; Case ; PLace
009651;07.12.2020;04:14:25;Cycle          ;04.12.2018;FEY;;LION;49;14500;7200;16576;2;97;98;;;4147;4146;1;12998;25.94;26.04;30,3;BCS1388054;3;11
009651;08.12.2020;16:19:50;Stop           ;04.12.2018;FEY;;LION;49;14500;7200;16576;2;98;98;;;4144;4143;1;12998;28.04;27.64;31,9;BCS1388054;3;11
009651;12.01.2021;04:17:47;Charge to 90% ;04.12.2018;FEY;;LION;49;14500;7200;16576;2;96;97;;;4129;4129;1;13034;23.24;24.04;23,8;BCS1388054;7;5
009651;12.01.2021;04:57:19;Stop          ;04.12.2018;FEY;;LION;49;14500;7200;192;2;90;90;8400;3000;4061;4060;1;13029;26.84;28.44;31,5;BCS1388054;7;5
009651;12.01.2021;05:22:01;Cycle         ;04.12.2018;FEY;;LION;49;14500;7200;192;2;90;90;8400;3000;4065;4065;1;13030;26.84;27.24;30,4;BCS1388054;7;5
009651;13.01.2021;08:19:29;Stop          ;04.12.2018;FEY;;LION;49;14500;7200;224;4;97;100;8400;;4154;4153;1;13030;26.54;27.34;30,7;BCS1388054;7;5
009651;03.03.2021;08:17:46;Normalcharge  ;04.12.2018;FEY;;LION;49;14500;7200;192;4;62;64;8400;3000;3786;3787;1;13031;23.34;22.94;23,6;BCS1388054;7;6
009651;03.03.2021;10:54:05;Stop          ;04.12.2018;FEY;;LION;49;14500;7200;128;4;93;97;8400;3000;4181;4143;1;12703;29.64;29.74;31,4;BCS1388054;7;6
009651;03.03.2021;10:55:49;Normalcharge  ;04.12.2018;FEY;;LION;49;14500;7200;192;4;94;97;8400;3000;4106;4105;1;13023;29.64;28.14;30,6;BCS1388054;7;6
009651;03.03.2021;17:03:24;Stop          ;04.12.2018;FEY;;LION;49;14500;7200;224;4;97;100;8400;;4151;4149;1;13024;26.24;26.14;31,4;BCS1388054;7;6
009651;04.04.2021;11:49:55;Normalcharge  ;04.12.2018;FEY;;LION;49;14500;7200;192;5;53;55;8400;3000;3691;3692;1;13021;25.14;26.04;27,5;BCS1388054;7;10
009651;04.04.2021;11:51:17;Stop          ;04.12.2018;FEY;;LION;49;14500;7200;128;5;53;55;8400;3000;3780;3732;1;12728;25.14;29.14;28,4;BCS1388054;7;10
009651;05.04.2021;09:37:46;Charge to 60% ;04.12.2018;FEY;;LION;49;14500;7200;192;5;53;55;8400;3000;3694;3694;1;12993;25.14;26.14;26,1;BCS1388054;2;15
009651;05.04.2021;10:03:48;Stop          ;04.12.2018;FEY;;LION;49;14500;7200;192;5;57;60;8400;3000;3755;3756;1;12989;27.24;31.54;31,4;BCS1388054;2;15

File: 009654.txt
Serialnumber ; Date ; Time ; Action ; Date of Manufacture ; Manufacturer ; Battery Name ; Device-Chemistry ; Specification-Info ; Design-Capacity [mAh] ; Design-Voltage [mV] ; Battery Status ; Cycle Count ; SOC [%] ; Relativ SOC[%] ; Desired Voltage [mV]; Desired Current [mA]; Cell Voltage 1 [mV] ; Cell Voltage 2 [mV] ; Max_Error [%] ; Busvoltage[mV] ; Battery Temperature [°C] ; Charger Temperature [°C] ; Batterysystem ; Case ; PLace
009654;07.12.2020;04:14:17;Cycle         ;03.12.2018;FEY;;LION;49;14500;7200;224;2;99;99;8400;;4154;4156;1;12998;25.74;28.24;30,3;BCS1388054;1;14
009654;08.12.2020;16:19:38;Stop          ;03.12.2018;FEY;;LION;49;14500;7200;224;3;97;100;8400;;4152;4154;1;12999;27.64;29.64;31,9;BCS1388054;1;14
009654;03.03.2021;08:17:29;Normalcharge  ;03.12.2018;FEY;;LION;49;14500;7200;192;3;89;91;8400;3000;4053;4054;1;13014;23.24;23.44;23,5;BCS1388054;4;1
009654;03.03.2021;10:32:46;Stop          ;03.12.2018;FEY;;LION;49;14500;7200;224;3;98;100;8400;;4155;4157;1;13009;28.24;29.94;32,0;BCS1388054;4;1
009654;04.04.2021;11:50:22;Normalcharge  ;03.12.2018;FEY;;LION;49;14500;7200;192;4;54;56;8400;3000;3704;3704;1;12996;25.04;26.04;27,9;BCS1388054;4;5
009654;04.04.2021;11:51:36;Stop          ;03.12.2018;FEY;;LION;49;14500;7200;128;4;54;56;8400;3000;3791;3746;1;12706;25.04;28.44;28,6;BCS1388054;4;5
009654;05.04.2021;09:37:37;Charge to 60% ;03.12.2018;FEY;;LION;49;14500;7200;192;4;54;56;8400;3000;3706;3707;1;13004;25.24;25.64;26,0;BCS1388054;1;17
009654;05.04.2021;10:01:53;Stop          ;03.12.2018;FEY;;LION;49;14500;7200;192;4;58;60;8400;3000;3767;3767;1;13000;26.94;28.84;31,2;BCS1388054;1;17

File: 009656.txt
Serialnumber ; Date ; Time ; Action ; Date of Manufacture ; Manufacturer ; Battery Name ; Device-Chemistry ; Specification-Info ; Design-Capacity [mAh] ; Design-Voltage [mV] ; Battery Status ; Cycle Count ; SOC [%] ; Relativ SOC[%] ; Desired Voltage [mV]; Desired Current [mA]; Cell Voltage 1 [mV] ; Cell Voltage 2 [mV] ; Max_Error [%] ; Busvoltage[mV] ; Battery Temperature [°C] ; Charger Temperature [°C] ; Batterysystem ; Case ; PLace
009656;12.01.2021;04:17:22;Charge to 90% ;03.12.2018;FEY;;LION;49;14500;7200;16576;2;96;98;;;4133;4133;1;12992;22.54;23.94;23,5;BCS1388054;2;18
009656;12.01.2021;04:54:21;Stop          ;03.12.2018;FEY;;LION;49;14500;7200;192;3;89;90;8400;3000;4047;4046;1;12986;27.34;33.54;31,9;BCS1388054;2;18
009656;12.01.2021;05:21:40;Cycle         ;03.12.2018;FEY;;LION;49;14500;7200;192;3;89;90;8400;3000;4058;4058;1;12986;26.74;28.54;30,6;BCS1388054;2;18
009656;13.01.2021;08:20:19;Stop          ;03.12.2018;FEY;;LION;49;14500;7200;224;4;96;100;8400;;4156;4154;1;12985;26.14;28.34;30,8;BCS1388054;2;18
009656;03.03.2021;08:17:17;Normalcharge  ;03.12.2018;FEY;;LION;49;14500;7200;192;4;91;94;8400;3000;4081;4080;1;12994;22.54;23.74;23,5;BCS1388054;2;18
009656;04.03.2021;07:53:46;Stop          ;03.12.2018;FEY;;LION;49;14500;7200;224;4;97;100;8400;;4148;4147;1;12986;25.74;27.94;31,6;BCS1388054;2;18
009656;04.04.2021;11:49:55;Normalcharge  ;03.12.2018;FEY;;LION;49;14500;7200;192;4;52;54;8400;3000;3689;3689;1;13037;24.54;24.94;27,5;BCS1388054;7;14
009656;04.04.2021;11:51:17;Stop          ;03.12.2018;FEY;;LION;49;14500;7200;128;4;52;54;8400;3000;3777;3730;1;12762;24.64;28.54;28,4;BCS1388054;7;14
009656;05.04.2021;09:38:11;Charge to 60% ;03.12.2018;FEY;;LION;49;14500;7200;192;4;52;55;8400;3000;3692;3691;1;12994;24.44;26.74;26,3;BCS1388054;4;2
009656;05.04.2021;10:13:52;Stop          ;03.12.2018;FEY;;LION;49;14500;7200;192;4;57;60;8400;3000;3754;3753;1;12991;26.64;30.44;32,1;BCS1388054;4;2

File: 009657.txt
Serialnumber ; Date ; Time ; Action ; Date of Manufacture ; Manufacturer ; Battery Name ; Device-Chemistry ; Specification-Info ; Design-Capacity [mAh] ; Design-Voltage [mV] ; Battery Status ; Cycle Count ; SOC [%] ; Relativ SOC[%] ; Desired Voltage [mV]; Desired Current [mA]; Cell Voltage 1 [mV] ; Cell Voltage 2 [mV] ; Max_Error [%] ; Busvoltage[mV] ; Battery Temperature [°C] ; Charger Temperature [°C] ; Batterysystem ; Case ; PLace
009657;07.12.2020;04:14:21;Cycle         ;04.12.2018;FEY;;LION;49;14500;7200;16576;2;98;99;;;4146;4145;1;13000;25.74;28.04;30,3;BCS1388054;2;4
009657;08.12.2020;16:19:44;Stop          ;04.12.2018;FEY;;LION;49;14500;7200;16576;2;98;99;;;4144;4142;1;13001;27.74;29.44;31,9;BCS1388054;2;4
009657;12.01.2021;04:17:33;Charge to 90% ;04.12.2018;FEY;;LION;49;14500;7200;16576;2;97;97;;;4128;4127;1;13013;23.04;23.34;23,6;BCS1388054;4;13
009657;12.01.2021;04:57:16;Stop          ;04.12.2018;FEY;;LION;49;14500;7200;192;2;90;90;8400;3000;4054;4053;1;13008;27.24;30.14;31,6;BCS1388054;4;13
009657;12.01.2021;05:21:49;Cycle         ;04.12.2018;FEY;;LION;49;14500;7200;192;2;90;90;8400;3000;4059;4058;1;13008;27.34;28.24;30,4;BCS1388054;4;13
009657;13.01.2021;08:19:19;Stop          ;04.12.2018;FEY;;LION;49;14500;7200;224;4;98;100;8400;;4156;4153;1;13008;27.24;28.14;30,7;BCS1388054;4;13
009657;21.02.2021;13:43:32;Normalcharge  ;04.12.2018;FEY;;LION;49;14500;7200;224;4;97;99;8400;;4130;4128;1;12993;23.34;24.64;27,5;BCS1388054;2;13
009657;21.02.2021;19:27:00;Stop          ;04.12.2018;FEY;;LION;49;14500;7200;224;4;97;99;8400;;4131;4128;1;12994;26.94;28.14;31,1;BCS1388054;2;13
009657;06.04.2021;08:39:21;Normalcharge  ;04.12.2018;FEY;;LION;49;14500;7200;192;4;95;98;8400;;4114;4113;1;13029;21.34;24.74;28,1;BCS1388054;7;7
009657;06.04.2021;08:40:08;Stop          ;04.12.2018;FEY;;LION;49;14500;7200;192;4;95;98;8400;;4114;4112;1;12955;21.34;25.04;28,5;BCS1388054;7;7

File: 009660.txt
Serialnumber ; Date ; Time ; Action ; Date of Manufacture ; Manufacturer ; Battery Name ; Device-Chemistry ; Specification-Info ; Design-Capacity [mAh] ; Design-Voltage [mV] ; Battery Status ; Cycle Count ; SOC [%] ; Relativ SOC[%] ; Desired Voltage [mV]; Desired Current [mA]; Cell Voltage 1 [mV] ; Cell Voltage 2 [mV] ; Max_Error [%] ; Busvoltage[mV] ; Battery Temperature [°C] ; Charger Temperature [°C] ; Batterysystem ; Case ; PLace
009660;07.12.2020;04:14:36;Cycle         ;03.12.2018;FEY;;LION;49;14500;7200;192;2;95;97;8400;;4115;4116;1;12990;25.44;27.74;30,3;BCS1388054;6;18
009660;08.12.2020;16:20:13;Stop          ;03.12.2018;FEY;;LION;49;14500;7200;192;2;95;97;8400;;4114;4115;1;12990;27.34;29.34;31,9;BCS1388054;6;18
009660;12.01.2021;04:17:33;Charge to 90% ;03.12.2018;FEY;;LION;49;14500;7200;192;2;94;96;8400;;4104;4104;1;13011;22.74;23.74;23,6;BCS1388054;4;12
009660;12.01.2021;04:57:16;Stop          ;03.12.2018;FEY;;LION;49;14500;7200;192;2;88;90;8400;3000;4044;4045;1;13007;27.44;27.64;31,6;BCS1388054;4;12
009660;12.01.2021;05:21:49;Cycle         ;03.12.2018;FEY;;LION;49;14500;7200;192;2;88;90;8400;3000;4046;4047;1;13008;26.94;26.64;30,4;BCS1388054;4;12
009660;13.01.2021;08:19:19;Stop          ;03.12.2018;FEY;;LION;49;14500;7200;224;4;96;100;8400;;4155;4158;1;13007;26.54;27.14;30,7;BCS1388054;4;12
009660;06.04.2021;08:38:50;Normalcharge  ;03.12.2018;FEY;;LION;49;14500;7200;192;4;94;98;8400;;4115;4117;1;13009;20.24;25.14;28,1;BCS1388054;3;10
009660;06.04.2021;08:39:42;Stop           ;03.12.2018;FEY;;LION;49;14500;7200;192;4;94;98;8400;;4115;4117;1;13007;20.34;25.34;28,2;BCS1388054;3;10

File: 009685.txt
Serialnumber ; Date ; Time ; Action ; Date of Manufacture ; Manufacturer ; Battery Name ; Device-Chemistry ; Specification-Info ; Design-Capacity [mAh] ; Design-Voltage [mV] ; Battery Status ; Cycle Count ; SOC [%] ; Relativ SOC[%] ; Desired Voltage [mV]; Desired Current [mA]; Cell Voltage 1 [mV] ; Cell Voltage 2 [mV] ; Max_Error [%] ; Busvoltage[mV] ; Battery Temperature [°C] ; Charger Temperature [°C] ; Batterysystem ; Case ; PLace
009685;07.12.2020;04:14:28;Cycle         ;04.12.2018;FEY;;LION;49;14500;7200;192;2;97;98;8400;;4149;4150;1;13013;25.74;27.34;30,3;BCS1388054;4;4
009685;08.12.2020;16:19:56;Stop          ;04.12.2018;FEY;;LION;49;14500;7200;192;2;97;98;8400;;4146;4147;1;13013;27.74;28.64;31,9;BCS1388054;4;4
009685;12.01.2021;04:17:40;Charge to 90% ;04.12.2018;FEY;;LION;49;14500;7200;192;2;96;97;8400;;4132;4132;1;13008;23.04;23.94;23,6;BCS1388054;6;9
009685;12.01.2021;05:00:55;Stop          ;04.12.2018;FEY;;LION;49;14500;7200;192;2;90;90;8400;3000;4062;4062;1;13003;26.94;29.34;31,2;BCS1388054;6;9
009685;12.01.2021;05:21:57;Cycle         ;04.12.2018;FEY;;LION;49;14500;7200;192;2;90;90;8400;3000;4065;4066;1;13003;27.04;28.34;30,4;BCS1388054;6;9
009685;13.01.2021;08:31:18;Stop          ;04.12.2018;FEY;;LION;49;14500;7200;224;3;97;100;8400;;4156;4157;1;13004;27.04;28.24;31,1;BCS1388054;6;9
009685;21.02.2021;13:45:29;Normalcharge  ;04.12.2018;FEY;;LION;49;14500;7200;224;3;96;99;8400;;4132;4133;1;13013;23.14;22.54;27,8;BCS1388054;6;4
009685;22.02.2021;17:20:47;Stop          ;04.12.2018;FEY;;LION;49;14500;7200;224;3;96;99;8400;;4131;4132;1;13006;26.34;26.14;30,7;BCS1388054;6;4
009685;06.04.2021;08:38:50;Normalcharge  ;04.12.2018;FEY;;LION;49;14500;7200;192;3;95;98;8400;;4117;4118;1;13013;20.54;24.84;28,1;BCS1388054;3;15
009685;06.04.2021;08:39:42;Stop           ;04.12.2018;FEY;;LION;49;14500;7200;192;3;95;98;8400;;4117;4118;1;13011;20.64;25.14;28,2;BCS1388054;3;15

File: 009691.txt
Serialnumber ; Date ; Time ; Action ; Date of Manufacture ; Manufacturer ; Battery Name ; Device-Chemistry ; Specification-Info ; Design-Capacity [mAh] ; Design-Voltage [mV] ; Battery Status ; Cycle Count ; SOC [%] ; Relativ SOC[%] ; Desired Voltage [mV]; Desired Current [mA]; Cell Voltage 1 [mV] ; Cell Voltage 2 [mV] ; Max_Error [%] ; Busvoltage[mV] ; Battery Temperature [°C] ; Charger Temperature [°C] ; Batterysystem ; Case ; PLace
009691;07.12.2020;04:14:25;Cycle          ;04.12.2018;FEY;;LION;49;14500;7200;16576;2;98;99;;;4155;4155;1;13004;26.04;27.04;30,3;BCS1388054;3;5
009691;08.12.2020;16:19:50;Stop           ;04.12.2018;FEY;;LION;49;14500;7200;16576;2;98;99;;;4153;4153;1;13005;28.04;28.54;31,9;BCS1388054;3;5
009691;12.01.2021;04:17:33;Charge to 90% ;04.12.2018;FEY;;LION;49;14500;7200;16576;2;97;97;;;4135;4136;1;13006;23.34;23.24;23,6;BCS1388054;4;14
009691;12.01.2021;04:57:16;Stop          ;04.12.2018;FEY;;LION;49;14500;7200;192;2;90;90;8400;3000;4058;4059;1;12999;27.24;29.94;31,6;BCS1388054;4;14
009691;12.01.2021;05:21:49;Cycle         ;04.12.2018;FEY;;LION;49;14500;7200;192;2;90;90;8400;3000;4065;4065;1;13000;27.44;28.14;30,4;BCS1388054;4;14
009691;13.01.2021;08:19:19;Stop          ;04.12.2018;FEY;;LION;49;14500;7200;224;4;98;100;8400;;4156;4156;1;13000;27.54;28.04;30,7;BCS1388054;4;14
009691;21.02.2021;13:45:29;Normalcharge  ;04.12.2018;FEY;;LION;49;14500;7200;2768;5;;;8400;3000;2990;2981;1;13016;23.54;23.24;27,8;BCS1388054;6;3
009691;06.04.2021;08:38:46;Normalcharge  ;04.12.2018;FEY;;LION;49;14500;7200;192;5;96;98;8400;;4124;4125;1;13022;20.74;25.14;28,1;BCS1388054;2;6
009691;06.04.2021;08:39:36;Stop          ;04.12.2018;FEY;;LION;49;14500;7200;192;5;96;98;8400;;4124;4125;1;13020;20.84;25.34;28,2;BCS1388054;2;6