Folder: Battery_sort_V2/reader/backup_20210408/Batterieverzeichnis_new (part 5)

File: 009781.txt
Serialnumber ; Date ; Time ; Action ; Date of Manufacture ; Manufacturer ; Battery Name ; Device-Chemistry ; Specification-Info ; Design-Capacity [mAh] ; Design-Voltage [mV] ; Battery Status ; Cycle Count ; SOC [%] ; Relativ SOC[%] ; Desired Voltage [mV]; Desired Current [mA]; Cell Voltage 1 [mV] ; Cell Voltage 2 [mV] ; Max_Error [%] ; Busvoltage[mV] ; Battery Temperature [°C] ; Charger Temperature [°C] ; Batterysystem ; Case ; PLace
009781;12.01.2021;04:17:28;Ladung auf 90% ;04.12.2018;FEY;;LION;49;14500;7200;16576;2;96;99;;;4133;4132;1;13006;23.04;22.64;23,6;BCS1388054;3;16
009781;12.01.2021;04:57:30;Stop           ;04.12.2018;FEY;;LION;49;14500;7200;192;2;83;90;8400;3000;4031;4029;1;13002;27.04;32.24;31,5;BCS1388054;3;16
009781;12.01.2021;05:21:45;Cycle          ;04.12.2018;FEY;;LION;49;14500;7200;192;2;83;90;8400;3000;4050;4049;1;13003;27.24;27.34;30,4;BCS1388054;3;16
009781;13.01.2021;08:23:25;Stop           ;04.12.2018;FEY;;LION;49;14500;7200;224;3;96;100;8400;;4156;4157;1;13002;27.14;27.34;31,4;BCS1388054;3;16
009781;22.02.2021;17:31:59;Normalcharge  ;04.12.2018;FEY;;LION;49;14500;7200;192;3;72;74;8400;3000;3891;3892;1;13002;26.34;27.54;31,6;BCS1388054;2;2
009781;22.02.2021;21:53:27;Stop          ;04.12.2018;FEY;;LION;49;14500;7200;224;3;98;100;8400;;4154;4154;1;13002;26.84;29.04;31,7;BCS1388054;2;2
009781;06.04.2021;08:39:03;Normalcharge  ;04.12.2018;FEY;;LION;49;14500;7200;224;3;96;99;8400;;4129;4128;1;13007;21.34;25.64;28,1;BCS1388054;4;7
009781;06.04.2021;08:39:53;Stop          ;04.12.2018;FEY;;LION;49;14500;7200;224;3;96;99;8400;;4129;4128;1;13005;21.34;25.94;28,4;BCS1388054;4;7

File: 009801.txt
Serialnumber ; Date ; Time ; Action ; Date of Manufacture ; Manufacturer ; Battery Name ; Device-Chemistry ; Specification-Info ; Design-Capacity [mAh] ; Design-Voltage [mV] ; Battery Status ; Cycle Count ; SOC [%] ; Relativ SOC[%] ; Desired Voltage [mV]; Desired Current [mA]; Cell Voltage 1 [mV] ; Cell Voltage 2 [mV] ; Max_Error [%] ; Busvoltage[mV] ; Battery Temperature [°C] ; Charger Temperature [°C] ; Batterysystem ; Case ; PLace
009801;07.12.2020;04:14:36;Cycle         ;03.12.2018;FEY;;LION;49;14500;7200;192;3;95;97;8400;;4131;4130;1;12986;25.54;28.64;30,3;BCS1388054;6;13
009801;08.12.2020;16:20:13;Stop          ;03.12.2018;FEY;;LION;49;14500;7200;192;3;95;97;8400;;4129;4128;1;12988;27.64;30.44;31,9;BCS1388054;6;13
009801;07.02.2021;08:46:49;Normalcharge  ;03.12.2018;FEY;;LION;49;14500;7200;192;3;94;96;8400;;4109;4108;1;12984;23.64;25.74;29,2;BCS1388054;2;18
009801;07.02.2021;11:52:12;Stop          ;03.12.2018;FEY;;LION;49;14500;7200;192;3;94;96;8400;;4109;4108;1;12986;25.54;27.44;29,7;BCS1388054;2;18
009801;03.03.2021;08:17:29;Normalcharge  ;03.12.2018;FEY;;LION;49;14500;7200;192;3;90;91;8400;3000;4067;4066;1;12997;22.94;23.84;23,5;BCS1388054;4;2
009801;03.03.2021;10:32:46;Stop          ;03.12.2018;FEY;;LION;49;14500;7200;224;3;99;100;8400;;4155;4154;1;12992;27.84;30.74;32,0;BCS1388054;4;2
009801;04.04.2021;11:50:28;Normalcharge  ;03.12.2018;FEY;;LION;49;14500;7200;192;4;51;53;8400;3000;3679;3680;1;13006;24.84;26.14;27,9;BCS1388054;3;10
009801;04.04.2021;11:51:43;Stop           ;03.12.2018;FEY;;LION;49;14500;7200;128;4;51;53;8400;3000;3767;3721;1;12773;24.94;28.94;28,6;BCS1388054;3;10
009801;05.04.2021;09:38:17;Charge to 60% ;03.12.2018;FEY;;LION;49;14500;7200;192;4;51;53;8400;3000;3682;3682;1;13005;24.84;26.34;26,4;BCS1388054;5;3
009801;05.04.2021;10:34:50;Charge to 60% ;03.12.2018;FEY;;LION;49;14500;7200;192;4;57;60;8400;3000;3754;3755;1;12912;27.34;30.34;32,4;BCS1388054;5;3
009801;05.04.2021;13:16:09;Stop          ;03.12.2018;FEY;;LION;49;14500;7200;192;4;57;60;8400;3000;3751;3753;1;13000;27.44;29.94;32,2;BCS1388054;5;3

File: 009809.txt
Serialnumber ; Date ; Time ; Action ; Date of Manufacture ; Manufacturer ; Battery Name ; Device-Chemistry ; Specification-Info ; Design-Capacity [mAh] ; Design-Voltage [mV] ; Battery Status ; Cycle Count ; SOC [%] ; Relativ SOC[%] ; Desired Voltage [mV]; Desired Current [mA]; Cell Voltage 1 [mV] ; Cell Voltage 2 [mV] ; Max_Error [%] ; Busvoltage[mV] ; Battery Temperature [°C] ; Charger Temperature [°C] ; Batterysystem ; Case ; PLace
009809;07.12.2020;04:14:32;Cycle         ;03.12.2018;FEY;;LION;49;14500;7200;192;3;96;98;8400;;4145;4143;1;13003;24.94;26.74;30,3;BCS1388054;5;10
009809;08.12.2020;16:20:01;Stop          ;03.12.2018;FEY;;LION;49;14500;7200;192;3;96;98;8400;;4143;4141;1;13001;27.04;28.24;31,7;BCS1388054;5;10
009809;07.02.2021;08:46:53;Normalcharge  ;03.12.2018;FEY;;LION;49;14500;7200;192;3;94;97;8400;;4119;4118;1;12995;22.84;26.04;29,2;BCS1388054;3;8
009809;07.02.2021;11:52:16;Stop           ;03.12.2018;FEY;;LION;49;14500;7200;192;3;94;97;8400;;4119;4118;1;12994;25.24;27.64;29,7;BCS1388054;3;8
009809;03.03.2021;08:17:40;Normalcharge  ;03.12.2018;FEY;;LION;49;14500;7200;192;4;68;70;8400;3000;3864;3863;1;12995;22.44;24.24;23,6;BCS1388054;6;13
009809;03.03.2021;11:56:52;Stop          ;03.12.2018;FEY;;LION;49;14500;7200;224;4;98;100;8400;;4158;4158;1;12989;27.94;30.44;31,7;BCS1388054;6;13
009809;04.04.2021;11:50:33;Normalcharge  ;03.12.2018;FEY;;LION;49;14500;7200;192;4;51;54;8400;3000;3688;3689;1;13002;24.24;27.24;27,9;BCS1388054;2;10
009809;04.04.2021;11:51:48;Stop          ;03.12.2018;FEY;;LION;49;14500;7200;128;4;51;54;8400;3000;3778;3728;1;12589;24.24;29.94;28,6;BCS1388054;2;10
009809;05.04.2021;09:38:17;Charge to 60% ;03.12.2018;FEY;;LION;49;14500;7200;192;4;51;54;8400;3000;3690;3691;1;13012;24.34;26.04;26,4;BCS1388054;5;4
009809;05.04.2021;10:34:50;Charge to 60% ;03.12.2018;FEY;;LION;49;14500;7200;192;4;57;60;8400;3000;3761;3762;1;12917;26.64;29.24;32,4;BCS1388054;5;4
009809;05.04.2021;13:16:09;Stop          ;03.12.2018;FEY;;LION;49;14500;7200;192;4;57;60;8400;3000;3759;3760;1;13007;26.84;29.24;32,2;BCS1388054;5;4

File: 009850.txt
Serialnumber ; Date ; Time ; Action ; Date of Manufacture ; Manufacturer ; Battery Name ; Device-Chemistry ; Specification-Info ; Design-Capacity [mAh] ; Design-Voltage [mV] ; Battery Status ; Cycle Count ; SOC [%] ; Relativ SOC[%] ; Desired Voltage [mV]; Desired Current [mA]; Cell Voltage 1 [mV] ; Cell Voltage 2 [mV] ; Max_Error [%] ; Busvoltage[mV] ; Battery Temperature [°C] ; Charger Temperature [°C] ; Batterysystem ; Case ; PLace
009850;12.01.2021;04:17:28;Ladung auf 90% ;04.12.2018;FEY;;LION;49;14500;7200;192;2;95;96;8400;;4108;4107;1;13004;22.94;23.04;23,6;BCS1388054;3;6
009850;12.01.2021;04:57:30;Stop           ;04.12.2018;FEY;;LION;49;14500;7200;192;2;90;90;8400;3000;4053;4051;1;12999;27.14;28.24;31,5;BCS1388054;3;6
009850;12.01.2021;05:21:45;Cycle          ;04.12.2018;FEY;;LION;49;14500;7200;192;2;90;90;8400;3000;4055;4054;1;13000;27.14;26.74;30,4;BCS1388054;3;6
009850;13.01.2021;08:23:25;Stop           ;04.12.2018;FEY;;LION;49;14500;7200;224;4;98;100;8400;;4155;4156;1;12999;26.64;27.04;31,4;BCS1388054;3;6
009850;21.02.2021;13:43:49;Normalcharge  ;04.12.2018;FEY;;LION;49;14500;7200;224;4;96;99;8400;;4129;4130;1;13011;22.74;23.14;27,7;BCS1388054;3;9
009850;21.02.2021;20:44:52;Stop           ;04.12.2018;FEY;;LION;49;14500;7200;224;4;97;99;8400;;4130;4130;1;13005;26.64;27.64;31,2;BCS1388054;3;9
009850;06.04.2021;08:39:10;Normalcharge  ;04.12.2018;FEY;;LION;49;14500;7200;192;4;95;98;8400;;4113;4114;1;13018;21.64;25.44;28,1;BCS1388054;5;18
009850;06.04.2021;08:39:59;Stop          ;04.12.2018;FEY;;LION;49;14500;7200;192;4;95;98;8400;;4113;4114;1;13016;21.84;25.54;28,4;BCS1388054;5;18