Folder: Battery_sort_V2/reader/backup_20210408/Batterieverzeichnis (part 3)

File: 009797.txt
Serialnumber ; Date ; Time ; Action ; Date of Manufacture ; Manufacturer ; Battery Name ; Device-Chemistry ; Specification-Info ; Design-Capacity [mAh] ; Design-Voltage [mV] ; Battery Status ; Cycle Count ; SOC [%] ; Relativ SOC[%] ; Desired Voltage [mV]; Desired Current [mA]; Cell Voltage 1 [mV] ; Cell Voltage 2 [mV] ; Max_Error [%] ; Busvoltage[mV] ; Battery Temperature [°C] ; Charger Temperature [°C] ; Batterysystem ; Case ; PLace
009797;07.12.2020;04:14:17;Cycle         ;04.12.2018;FEY;;LION;49;14500;7200;224;2;98;99;8400;;4147;4147;1;13001;25.94;28.94;30,3;BCS1388054;1;15
009797;08.12.2020;16:19:38;Stop          ;04.12.2018;FEY;;LION;49;14500;7200;224;3;97;100;8400;;4151;4152;1;13000;27.74;30.44;31,9;BCS1388054;1;15
009797;03.03.2021;08:17:21;Normalcharge  ;04.12.2018;FEY;;LION;49;14500;7200;192;3;89;92;8400;3000;4058;4059;1;13012;23.44;23.94;23,5;BCS1388054;3;13
009797;04.03.2021;07:53:40;Stop           ;04.12.2018;FEY;;LION;49;14500;7200;224;3;98;100;8400;;4146;4147;1;13005;26.84;28.84;31,5;BCS1388054;3;13
009797;04.04.2021;11:50:10;Normalcharge  ;04.12.2018;FEY;;LION;49;14500;7200;192;3;53;55;8400;3000;3698;3699;1;12998;25.24;26.74;27,8;BCS1388054;5;7
009797;04.04.2021;11:51:30;Stop          ;04.12.2018;FEY;;LION;49;14500;7200;128;3;53;55;8400;3000;3784;3738;1;12681;25.34;29.84;28,5;BCS1388054;5;7
009797;05.04.2021;09:38:00;Ladung auf 60% ;04.12.2018;FEY;;LION;49;14500;7200;192;3;53;55;8400;3000;3701;3701;1;13008;25.24;25.94;26,3;BCS1388054;3;10
009797;05.04.2021;10:06:07;Stop           ;04.12.2018;FEY;;LION;49;14500;7200;192;3;57;60;8400;3000;3758;3761;1;13003;27.14;29.14;31,4;BCS1388054;3;10

File: 009815.txt
Serialnumber ; Date ; Time ; Action ; Date of Manufacture ; Manufacturer ; Battery Name ; Device-Chemistry ; Specification-Info ; Design-Capacity [mAh] ; Design-Voltage [mV] ; Battery Status ; Cycle Count ; SOC [%] ; Relativ SOC[%] ; Desired Voltage [mV]; Desired Current [mA]; Cell Voltage 1 [mV] ; Cell Voltage 2 [mV] ; Max_Error [%] ; Busvoltage[mV] ; Battery Temperature [°C] ; Charger Temperature [°C] ; Batterysystem ; Case ; PLace
009815;10.12.2019;15:28:34;Charge to 30% ;03.12.2018;FEY;;LION;49;14500;7200;192;47;90;98;8400;;4106;4106;1;12990;23.64;25.54;27,1;BCS1388054;1;12
009815;10.12.2019;20:42:17;Stop          ;03.12.2018;FEY;;LION;49;14500;7200;192;48;28;30;8400;3000;3564;3563;1;12989;31.24;31.64;34,1;BCS1388054;1;12
009815;11.12.2019;08:48:18;Fastcharge    ;03.12.2018;FEY;;LION;49;14500;7200;192;48;28;30;8400;3000;3570;3570;1;12989;26.04;27.64;31,9;BCS1388054;1;12
009815;11.12.2019;13:40:21;Stop          ;03.12.2018;FEY;;LION;49;14500;7200;224;48;93;100;8400;;4159;4159;1;12990;28.04;28.64;32,4;BCS1388054;1;12
009815;11.12.2019;15:45:57;Charge to 30% ;03.12.2018;FEY;;LION;49;14500;7200;224;48;94;99;8400;;4151;4151;1;12990;26.54;27.54;31,5;BCS1388054;1;12
009815;11.12.2019;15:46:00;Stop          ;03.12.2018;FEY;;LION;49;14500;7200;224;48;94;99;8400;;4151;4151;1;12990;26.54;27.44;31,5;BCS1388054;1;12
009815;11.12.2019;15:46:13;Charge to 10% ;03.12.2018;FEY;;LION;49;14500;7200;224;48;94;99;8400;;4151;4151;1;12989;26.54;27.44;31,5;BCS1388054;1;12
009815;11.12.2019;22:50:20;Stop          ;03.12.2018;FEY;;LION;49;14500;7200;192;49;10;10;8400;3000;3356;3357;1;12990;31.24;31.04;33,4;BCS1388054;1;12
009815;12.12.2019;08:44:40;Normalcharge  ;03.12.2018;FEY;;LION;49;14500;7200;192;49;9;10;8400;3000;3365;3366;1;12990;26.24;27.54;31,9;BCS1388054;1;12
009815;12.12.2019;16:39:22;Stop          ;03.12.2018;FEY;;LION;49;14500;7200;224;49;95;100;8400;;4158;4158;1;12989;27.74;28.44;31,7;BCS1388054;1;12
009815;13.12.2019;10:47:47;Charge to 10% ;03.12.2018;FEY;;LION;49;14500;7200;224;49;94;100;8400;;4146;4146;1;12990;26.24;27.94;32,0;BCS1388054;1;12
009815;13.12.2019;15:41:58;Stop          ;03.12.2018;FEY;;LION;49;14500;7200;192;50;33;35;8400;3000;3492;3544;1;13627;30.84;33.24;34,6;BCS1388054;1;12
009815;13.12.2019;15:42:01;Cycle         ;03.12.2018;FEY;;LION;49;14500;7200;192;50;33;35;8400;3000;3492;3544;1;12987;30.84;33.24;34,6;BCS1388054;1;12
009815;14.12.2019;22:41:25;Stop          ;03.12.2018;FEY;;LION;49;14500;7200;224;51;92;99;8400;;4150;4150;1;12990;26.14;27.74;31,9;BCS1388054;1;12
009815;16.12.2019;07:43:03;Charge to 10% ;03.12.2018;FEY;;LION;49;14500;7200;224;51;92;100;8400;;4144;4144;1;12989;25.94;27.04;31,9;BCS1388054;1;12
009815;16.12.2019;14:36:13;Stop          ;03.12.2018;FEY;;LION;49;14500;7200;192;52;10;10;8400;3000;3368;3368;1;12989;30.14;30.14;32,4;BCS1388054;1;12
009815;16.12.2019;14:44:00;Charge to 90% ;03.12.2018;FEY;;LION;49;14500;7200;192;52;10;10;8400;3000;3370;3370;1;12990;29.54;29.44;31,7;BCS1388054;1;12
009815;16.12.2019;20:50:03;Stop          ;03.12.2018;FEY;;LION;49;14500;7200;192;52;83;90;8400;3000;4055;4056;1;12990;29.24;29.24;31,7;BCS1388054;1;12
009815;17.12.2019;08:37:36;Fastcharge    ;03.12.2018;FEY;;LION;49;14500;7200;192;52;83;90;8400;3000;4047;4048;1;12990;26.04;27.54;31,6;BCS1388054;1;12
009815;17.12.2019;10:31:11;Stop          ;03.12.2018;FEY;;LION;49;14500;7200;224;52;93;100;8400;;4159;4159;1;12990;27.04;27.74;31,4;BCS1388054;1;12
009815;17.12.2019;13:38:19;Charge to 10% ;03.12.2018;FEY;;LION;49;14500;7200;224;52;93;100;8400;;4148;4148;1;12989;26.14;27.44;30,8;BCS1388054;1;12
009815;17.12.2019;20:33:50;Stop          ;03.12.2018;FEY;;LION;49;14500;7200;192;53;10;10;8400;3000;3369;3369;1;12989;31.34;31.34;34,2;BCS1388054;1;12
009815;18.12.2019;08:31:14;Fastcharge    ;03.12.2018;FEY;;LION;49;14500;7200;192;53;10;10;8400;3000;3377;3378;1;12989;26.24;27.24;31,6;BCS1388054;1;12
009815;18.12.2019;14:28:33;Stop          ;03.12.2018;FEY;;LION;49;14500;7200;224;53;93;100;8400;;4157;4157;1;12989;28.04;28.64;31,9;BCS1388054;1;12
009815;19.12.2019;08:23:45;Charge to 60% ;03.12.2018;FEY;;LION;49;14500;7200;224;53;94;100;8400;;4146;4146;1;12990;26.04;27.54;31,5;BCS1388054;1;12
009815;19.12.2019;11:29:32;Stop          ;03.12.2018;FEY;;LION;49;14500;7200;192;54;57;60;8400;3000;3764;3763;1;12990;31.94;31.74;34,9;BCS1388054;1;12
009815;19.12.2019;12:16:33;Cycle         ;03.12.2018;FEY;;LION;49;14500;7200;192;54;57;60;8400;3000;3774;3772;1;12990;28.34;29.04;32,7;BCS1388054;1;12
009815;20.12.2019;17:26:19;Stop          ;03.12.2018;FEY;;LION;49;14500;7200;224;55;92;100;8400;;4149;4150;1;12990;26.14;27.04;31,2;BCS1388054;1;12
009815;06.01.2020;06:34:38;Charge to 60% ;03.12.2018;FEY;;LION;49;14500;7200;192;55;91;98;8400;;4120;4121;1;12991;26.14;27.44;31,9;BCS1388054;1;12
009815;06.01.2020;09:30:30;Stop          ;03.12.2018;FEY;;LION;49;14500;7200;192;56;56;60;8400;3000;3773;3772;1;12991;31.14;30.74;33,9;BCS1388054;1;12
009815;06.01.2020;09:50:27;Fastcharge    ;03.12.2018;FEY;;LION;49;14500;7200;192;56;56;60;8400;3000;3779;3779;1;12990;29.24;29.54;32,6;BCS1388054;1;12
009815;06.01.2020;13:07:36;Stop          ;03.12.2018;FEY;;LION;49;14500;7200;224;56;93;100;8400;;4158;4158;1;12991;27.74;28.14;31,7;BCS1388054;1;12

File: 009835.txt
Serialnumber ; Date ; Time ; Action ; Date of Manufacture ; Manufacturer ; Battery Name ; Device-Chemistry ; Specification-Info ; Design-Capacity [mAh] ; Design-Voltage [mV] ; Battery Status ; Cycle Count ; SOC [%] ; Relativ SOC[%] ; Desired Voltage [mV]; Desired Current [mA]; Cell Voltage 1 [mV] ; Cell Voltage 2 [mV] ; Max_Error [%] ; Busvoltage[mV] ; Battery Temperature [°C] ; Charger Temperature [°C] ; Batterysystem ; Case ; PLace
009835;07.02.2021;08:46:53;Normalcharge  ;04.12.2018;FEY;;LION;49;14500;7200;192;3;96;96;8400;;4106;4106;1;13006;23.44;25.14;29,2;BCS1388054;3;5
009835;07.02.2021;11:52:16;Stop           ;04.12.2018;FEY;;LION;49;14500;7200;192;3;96;96;8400;;4106;4106;1;13006;25.64;26.34;29,7;BCS1388054;3;5
009835;03.03.2021;08:17:17;Normalcharge  ;04.12.2018;FEY;;LION;49;14500;7200;192;3;95;95;8400;3000;4099;4099;1;13002;22.94;23.04;23,5;BCS1388054;2;13
009835;04.03.2021;07:53:46;Stop          ;04.12.2018;FEY;;LION;49;14500;7200;224;3;100;100;8400;;4146;4147;1;12994;26.24;27.74;31,6;BCS1388054;2;13
009835;04.04.2021;11:50:33;Normalcharge  ;04.12.2018;FEY;;LION;49;14500;7200;192;4;54;55;8400;3000;3694;3695;1;13005;24.74;27.04;27,9;BCS1388054;2;4
009835;04.04.2021;11:51:48;Stop          ;04.12.2018;FEY;;LION;49;14500;7200;128;4;54;55;8400;3000;3783;3737;1;12602;24.84;29.84;28,6;BCS1388054;2;4
009835;05.04.2021;09:37:46;Charge to 60% ;04.12.2018;FEY;;LION;49;14500;7200;192;4;54;55;8400;3000;3696;3698;1;12991;24.94;26.44;26,1;BCS1388054;2;7
009835;05.04.2021;10:03:48;Stop          ;04.12.2018;FEY;;LION;49;14500;7200;192;4;58;60;8400;3000;3757;3766;1;12987;26.84;30.34;31,4;BCS1388054;2;7