Folder: Battery_sort_V2/V2/reader/Batterieverzeichnis (part 2)

File: 009522.txt
Serialnumber ; Date ; Time ; Action ; Date of Manufacture ; Manufacturer ; Battery Name ; Device-Chemistry ; Specification-Info ; Design-Capacity [mAh] ; Design-Voltage [mV] ; Battery Status ; Cycle Count ; SOC [%] ; Relativ SOC[%] ; Desired Voltage [mV]; Desired Current [mA]; Cell Voltage 1 [mV] ; Cell Voltage 2 [mV] ; Max_Error [%] ; Busvoltage[mV] ; Battery Temperature [°C] ; Charger Temperature [°C] ; Batterysystem ; Case ; PLace
009522;10.12.2019;15:29:09;Charge to 30% ;04.12.2018;FEY;;LION;49;14500;7200;224;29;94;99;8400;;4121;4120;1;13010;22.64;26.54;27,1;BCS1388054;6;2
009522;10.12.2019;20:46:41;Stop          ;04.12.2018;FEY;;LION;49;14500;7200;192;30;29;30;8400;3000;3556;3554;1;13009;32.74;35.84;33,6;BCS1388054;6;2
009522;11.12.2019;08:49:03;Fastcharge    ;04.12.2018;FEY;;LION;49;14500;7200;192;30;29;30;8400;3000;3568;3567;1;13009;26.34;30.04;31,9;BCS1388054;6;2
009522;11.12.2019;13:39:30;Stop          ;04.12.2018;FEY;;LION;49;14500;7200;224;30;96;100;8400;;4165;4165;1;13009;29.94;32.44;32,5;BCS1388054;6;2
009522;11.12.2019;15:46:47;Charge to 10% ;04.12.2018;FEY;;LION;49;14500;7200;224;30;98;100;8400;;4156;4156;1;13007;27.14;30.24;31,4;BCS1388054;6;2
009522;11.12.2019;22:52:10;Stop          ;04.12.2018;FEY;;LION;49;14500;7200;192;31;10;10;8400;3000;3348;3347;1;13009;33.44;35.84;33,0;BCS1388054;6;2
009522;12.12.2019;08:45:18;Normalcharge  ;04.12.2018;FEY;;LION;49;14500;7200;192;31;9;10;8400;3000;3362;3360;1;13009;26.54;30.24;31,7;BCS1388054;6;2
009522;12.12.2019;16:41:29;Stop          ;04.12.2018;FEY;;LION;49;14500;7200;224;31;97;100;8400;;4163;4164;1;13009;29.04;31.74;31,5;BCS1388054;6;2
009522;13.12.2019;10:48:09;Charge to 10% ;04.12.2018;FEY;;LION;49;14500;7200;224;31;97;100;8400;;4151;4151;1;13008;26.54;30.24;32,0;BCS1388054;6;2
009522;13.12.2019;13:51:54;Stop          ;04.12.2018;FEY;;LION;49;14500;7200;192;32;59;61;8400;3000;3682;3731;1;13486;33.94;41.94;36,1;BCS1388054;6;2
009522;13.12.2019;13:53:13;Fastcharge    ;04.12.2018;FEY;;LION;49;14500;7200;192;32;59;61;8400;3000;3768;3766;1;13013;33.94;39.24;35,8;BCS1388054;6;2
009522;13.12.2019;13:53:19;Stop          ;04.12.2018;FEY;;LION;49;14500;7200;192;32;59;61;8400;3000;3769;3767;1;13005;33.94;39.14;35,8;BCS1388054;6;2
009522;13.12.2019;13:53:25;Normalcharge  ;04.12.2018;FEY;;LION;49;14500;7200;192;32;59;61;8400;3000;3769;3767;1;13014;33.94;39.04;35,8;BCS1388054;6;2
009522;13.12.2019;20:04:59;Stop          ;04.12.2018;FEY;;LION;49;14500;7200;224;32;97;100;8400;;4155;4156;1;13015;27.94;31.04;32,0;BCS1388054;6;2
009522;16.12.2019;07:43:27;Charge to 10% ;04.12.2018;FEY;;LION;49;14500;7200;224;32;97;100;8400;;4147;4147;1;13015;26.34;29.14;31,7;BCS1388054;6;2
009522;16.12.2019;14:43:10;Stop          ;04.12.2018;FEY;;LION;49;14500;7200;192;33;10;10;8400;3000;3339;3337;1;13016;31.64;36.44;31,7;BCS1388054;6;2
009522;16.12.2019;14:44:21;Charge to 90% ;04.12.2018;FEY;;LION;49;14500;7200;192;33;10;10;8400;3000;3347;3345;1;13015;31.54;33.94;31,9;BCS1388054;6;2
009522;16.12.2019;20:54:26;Stop          ;04.12.2018;FEY;;LION;49;14500;7200;128;33;87;90;8400;3000;4057;4060;1;13015;31.54;34.94;32,1;BCS1388054;6;2
009522;17.12.2019;08:37:57;Fastcharge    ;04.12.2018;FEY;;LION;49;14500;7200;192;33;87;90;8400;3000;4039;4040;1;13015;26.44;29.84;31,6;BCS1388054;6;2
009522;17.12.2019;13:38:40;Charge to 10% ;04.12.2018;FEY;;LION;49;14500;7200;224;33;97;100;8400;;4153;4156;1;13015;26.74;29.94;30,8;BCS1388054;6;2
009522;17.12.2019;20:41:40;Stop          ;04.12.2018;FEY;;LION;49;14500;7200;192;34;10;10;8400;3000;3250;3300;1;13015;33.54;38.74;32,6;BCS1388054;6;2
009522;18.12.2019;08:31:34;Fastcharge    ;04.12.2018;FEY;;LION;49;14500;7200;192;34;9;9;8400;3000;3360;3360;1;13015;26.54;30.04;31,6;BCS1388054;6;2
009522;18.12.2019;14:33:31;Stop          ;04.12.2018;FEY;;LION;49;14500;7200;224;34;96;100;8400;;4165;4168;1;13015;29.74;32.14;31,4;BCS1388054;6;2
009522;19.12.2019;08:24:06;Charge to 60% ;04.12.2018;FEY;;LION;49;14500;7200;224;34;97;100;8400;;4152;4154;1;13015;26.54;29.94;31,5;BCS1388054;6;2
009522;19.12.2019;11:34:24;Stop          ;04.12.2018;FEY;;LION;49;14500;7200;192;35;59;60;8400;3000;3770;3770;1;13016;33.14;35.14;33,5;BCS1388054;6;2
009522;19.12.2019;12:16:53;Cycle         ;04.12.2018;FEY;;LION;49;14500;7200;192;35;59;60;8400;3000;3781;3781;1;13015;30.24;31.94;32,7;BCS1388054;6;2
009522;20.12.2019;17:31:05;Stop          ;04.12.2018;FEY;;LION;49;14500;7200;224;36;95;100;8400;;4155;4154;1;13015;26.84;29.74;30,6;BCS1388054;6;2
009522;06.01.2020;06:34:58;Charge to 60% ;04.12.2018;FEY;;LION;49;14500;7200;192;36;94;98;8400;;4123;4123;1;13016;26.64;30.04;31,9;BCS1388054;6;2
009522;06.01.2020;09:30:42;Stop          ;04.12.2018;FEY;;LION;49;14500;7200;192;37;58;60;8400;3000;3756;3754;1;13017;32.54;37.94;33,7;BCS1388054;6;2
009522;06.01.2020;09:50:46;Fastcharge    ;04.12.2018;FEY;;LION;49;14500;7200;192;37;58;60;8400;3000;3776;3774;1;13016;31.24;32.34;32,7;BCS1388054;6;2
009522;06.01.2020;13:06:22;Stop          ;04.12.2018;FEY;;LION;49;14500;7200;224;37;96;100;8400;;4162;4162;1;13017;29.34;31.94;32,1;BCS1388054;6;2

File: 009529.txt
Serialnumber ; Date ; Time ; Action ; Date of Manufacture ; Manufacturer ; Battery Name ; Device-Chemistry ; Specification-Info ; Design-Capacity [mAh] ; Design-Voltage [mV] ; Battery Status ; Cycle Count ; SOC [%] ; Relativ SOC[%] ; Desired Voltage [mV]; Desired Current [mA]; Cell Voltage 1 [mV] ; Cell Voltage 2 [mV] ; Max_Error [%] ; Busvoltage[mV] ; Battery Temperature [°C] ; Charger Temperature [°C] ; Batterysystem ; Case ; PLace
009529;10.12.2019;15:29:09;Charge to 30% ;04.12.2018;FEY;;LION;49;14500;7200;224;27;92;99;8400;;4121;4121;1;13014;22.74;23.64;27,1;BCS1388054;6;5
009529;10.12.2019;20:46:41;Stop          ;04.12.2018;FEY;;LION;49;14500;7200;192;28;29;30;8400;3000;3559;3561;1;13010;32.34;30.54;33,6;BCS1388054;6;5
009529;11.12.2019;08:49:03;Fastcharge    ;04.12.2018;FEY;;LION;49;14500;7200;192;28;29;30;8400;3000;3569;3570;1;13012;26.44;26.54;31,9;BCS1388054;6;5
009529;11.12.2019;13:39:30;Stop          ;04.12.2018;FEY;;LION;49;14500;7200;224;28;95;100;8400;;4163;4163;1;13012;29.14;28.04;32,5;BCS1388054;6;5
009529;11.12.2019;15:46:47;Charge to 10% ;04.12.2018;FEY;;LION;49;14500;7200;224;28;96;100;8400;;4156;4156;1;13012;27.04;26.54;31,4;BCS1388054;6;5
009529;11.12.2019;22:52:10;Stop          ;04.12.2018;FEY;;LION;49;14500;7200;192;29;10;10;8400;3000;3353;3356;1;13011;32.84;30.44;33,0;BCS1388054;6;5
009529;12.12.2019;08:45:18;Normalcharge  ;04.12.2018;FEY;;LION;49;14500;7200;192;29;9;10;8400;3000;3363;3365;1;13012;26.64;26.54;31,7;BCS1388054;6;5
009529;12.12.2019;16:41:29;Stop          ;04.12.2018;FEY;;LION;49;14500;7200;224;29;96;100;8400;;4161;4161;1;13013;28.64;27.54;31,5;BCS1388054;6;5
009529;13.12.2019;10:48:09;Charge to 10% ;04.12.2018;FEY;;LION;49;14500;7200;224;29;96;100;8400;;4150;4150;1;13012;26.64;26.74;32,0;BCS1388054;6;5
009529;13.12.2019;13:51:54;Stop          ;04.12.2018;FEY;;LION;49;14500;7200;192;30;58;60;8400;3000;3677;3731;1;13496;33.64;35.24;36,1;BCS1388054;6;5
009529;13.12.2019;13:53:13;Fastcharge    ;04.12.2018;FEY;;LION;49;14500;7200;192;30;58;60;8400;3000;3763;3766;1;13013;33.64;33.34;35,8;BCS1388054;6;5
009529;13.12.2019;13:53:19;Stop          ;04.12.2018;FEY;;LION;49;14500;7200;192;30;58;60;8400;3000;3763;3766;1;13003;33.64;33.14;35,8;BCS1388054;6;5
009529;13.12.2019;13:53:25;Normalcharge  ;04.12.2018;FEY;;LION;49;14500;7200;192;30;58;60;8400;3000;3764;3766;1;13013;33.64;33.04;35,8;BCS1388054;6;5
009529;13.12.2019;20:04:59;Stop          ;04.12.2018;FEY;;LION;49;14500;7200;224;30;96;100;8400;;4154;4154;1;13017;27.74;27.44;32,0;BCS1388054;6;5
009529;16.12.2019;07:43:27;Charge to 10% ;04.12.2018;FEY;;LION;49;14500;7200;224;30;96;100;8400;;4146;4146;1;13018;26.34;25.34;31,7;BCS1388054;6;5
009529;16.12.2019;14:43:10;Stop          ;04.12.2018;FEY;;LION;49;14500;7200;192;31;10;10;8400;3000;3353;3355;1;13016;31.04;28.54;31,7;BCS1388054;6;5
009529;16.12.2019;14:44:21;Charge to 90% ;04.12.2018;FEY;;LION;49;14500;7200;192;31;10;10;8400;3000;3353;3355;1;13016;30.94;28.34;31,9;BCS1388054;6;5
009529;16.12.2019;20:54:26;Stop          ;04.12.2018;FEY;;LION;49;14500;7200;192;31;85;90;8400;3000;4053;4054;1;13018;30.84;29.04;32,1;BCS1388054;6;5
009529;17.12.2019;08:37:57;Fastcharge    ;04.12.2018;FEY;;LION;49;14500;7200;192;31;86;90;8400;3000;4042;4043;1;13018;26.44;26.54;31,6;BCS1388054;6;5
009529;17.12.2019;13:38:40;Charge to 10% ;04.12.2018;FEY;;LION;49;14500;7200;224;31;96;100;8400;;4153;4154;1;13017;26.74;26.54;30,8;BCS1388054;6;5
009529;17.12.2019;20:41:41;Stop          ;04.12.2018;FEY;;LION;49;14500;7200;192;32;10;10;8400;3000;3350;3353;1;13016;32.94;30.24;32,6;BCS1388054;6;5
009529;18.12.2019;08:31:34;Fastcharge    ;04.12.2018;FEY;;LION;49;14500;7200;192;32;9;9;8400;3000;3362;3365;1;13018;26.54;26.44;31,6;BCS1388054;6;5
009529;18.12.2019;14:33:31;Stop          ;04.12.2018;FEY;;LION;49;14500;7200;224;32;95;100;8400;;4163;4164;1;13017;29.14;27.64;31,4;BCS1388054;6;5
009529;19.12.2019;08:24:06;Charge to 60% ;04.12.2018;FEY;;LION;49;14500;7200;224;32;96;100;8400;;4151;4152;1;13018;26.54;26.54;31,5;BCS1388054;6;5
009529;19.12.2019;11:34:24;Stop          ;04.12.2018;FEY;;LION;49;14500;7200;192;33;58;60;8400;3000;3767;3771;1;13016;32.84;30.44;33,5;BCS1388054;6;5
009529;19.12.2019;12:16:53;Cycle         ;04.12.2018;FEY;;LION;49;14500;7200;192;33;58;60;8400;3000;3777;3782;1;13017;29.74;28.14;32,7;BCS1388054;6;5
009529;20.12.2019;17:31:05;Stop          ;04.12.2018;FEY;;LION;49;14500;7200;224;34;94;100;8400;;4154;4155;1;13017;26.74;26.24;30,6;BCS1388054;6;5
009529;06.01.2020;06:34:58;Charge to 60% ;04.12.2018;FEY;;LION;49;14500;7200;192;34;93;98;8400;;4124;4123;1;13019;26.64;26.64;31,9;BCS1388054;6;5
009529;06.01.2020;09:30:42;Stop          ;04.12.2018;FEY;;LION;49;14500;7200;192;34;57;60;8400;3000;3761;3764;1;13018;32.14;30.84;33,7;BCS1388054;6;5
009529;06.01.2020;09:50:46;Fastcharge    ;04.12.2018;FEY;;LION;49;14500;7200;192;34;57;60;8400;3000;3775;3779;1;13017;30.84;28.74;32,7;BCS1388054;6;5
009529;06.01.2020;13:06:22;Stop          ;04.12.2018;FEY;;LION;49;14500;7200;224;34;95;100;8400;;4163;4164;1;13018;28.84;27.74;32,1;BCS1388054;6;5

File: 009567.txt
Serialnumber ; Date ; Time ; Action ; Date of Manufacture ; Manufacturer ; Battery Name ; Device-Chemistry ; Specification-Info ; Design-Capacity [mAh] ; Design-Voltage [mV] ; Battery Status ; Cycle Count ; SOC [%] ; Relativ SOC[%] ; Desired Voltage [mV]; Desired Current [mA]; Cell Voltage 1 [mV] ; Cell Voltage 2 [mV] ; Max_Error [%] ; Busvoltage[mV] ; Battery Temperature [°C] ; Charger Temperature [°C] ; Batterysystem ; Case ; PLace
009567;10.12.2019;15:28:40;Charge to 30% ;04.12.2018;FEY;;LION;49;14500;7200;224;53;94;100;8400;;4132;4132;1;12993;22.64;25.04;27,1;BCS1388054;2;7
009567;10.12.2019;20:48:37;Stop          ;04.12.2018;FEY;;LION;49;14500;7200;192;54;29;30;8400;3000;3468;3520;1;12993;33.84;38.44;33,2;BCS1388054;2;7
009567;11.12.2019;08:48:24;Fastcharge    ;04.12.2018;FEY;;LION;49;14500;7200;192;54;29;31;8400;3000;3564;3565;1;12993;26.14;28.64;31,9;BCS1388054;2;7
009567;11.12.2019;13:39:47;Stop          ;04.12.2018;FEY;;LION;49;14500;7200;224;54;95;100;8400;;4164;4163;1;12994;30.54;31.84;32,5;BCS1388054;2;7
009567;11.12.2019;15:46:18;Charge to 10% ;04.12.2018;FEY;;LION;49;14500;7200;224;54;97;100;8400;;4153;4152;1;12993;27.14;29.24;31,4;BCS1388054;2;7
009567;11.12.2019;22:49:04;Stop          ;04.12.2018;FEY;;LION;49;14500;7200;192;55;10;10;8400;3000;3250;3303;1;12993;34.84;39.04;33,6;BCS1388054;2;7
009567;12.12.2019;08:44:52;Normalcharge  ;04.12.2018;FEY;;LION;49;14500;7200;192;55;9;10;8400;3000;3360;3361;1;12994;26.34;28.84;31,9;BCS1388054;2;7
009567;12.12.2019;16:40:06;Stop          ;04.12.2018;FEY;;LION;49;14500;7200;224;55;96;100;8400;;4163;4164;1;12993;29.44;31.34;31,7;BCS1388054;2;7
009567;13.12.2019;10:47:50;Charge to 10% ;04.12.2018;FEY;;LION;49;14500;7200;224;55;96;100;8400;;4148;4147;1;12993;26.34;28.84;32,0;BCS1388054;2;7
009567;13.12.2019;15:42:08;Cycle         ;04.12.2018;FEY;;LION;49;14500;7200;192;55;37;38;8400;3000;3503;3555;1;13550;33.34;40.04;34,6;BCS1388054;2;7
009567;13.12.2019;15:42:08;Stop          ;04.12.2018;FEY;;LION;49;14500;7200;192;55;37;38;8400;3000;3503;3555;1;13550;33.34;40.04;34,6;BCS1388054;2;7
009567;14.12.2019;22:48:51;Stop          ;04.12.2018;FEY;;LION;49;14500;7200;224;57;94;100;8400;;4152;4153;1;12993;26.54;28.94;32,0;BCS1388054;2;7
009567;16.12.2019;07:43:06;Charge to 10% ;04.12.2018;FEY;;LION;49;14500;7200;224;57;93;100;8400;;4146;4147;1;12993;26.04;28.34;31,9;BCS1388054;2;7
009567;16.12.2019;14:37:54;Stop          ;04.12.2018;FEY;;LION;49;14500;7200;192;58;10;10;8400;3000;3362;3364;1;12994;33.34;33.74;32,4;BCS1388054;2;7
009567;16.12.2019;14:44:03;Charge to 90% ;04.12.2018;FEY;;LION;49;14500;7200;192;58;10;10;8400;3000;3365;3367;1;12993;32.84;32.54;31,9;BCS1388054;2;7
009567;16.12.2019;20:51:09;Stop          ;04.12.2018;FEY;;LION;49;14500;7200;192;58;85;90;8400;3000;4062;4064;1;12995;32.24;33.14;31,6;BCS1388054;2;7
009567;17.12.2019;08:37:40;Fastcharge    ;04.12.2018;FEY;;LION;49;14500;7200;192;58;85;90;8400;3000;4047;4049;1;12994;26.14;28.64;31,6;BCS1388054;2;7
009567;17.12.2019;10:30:36;Stop          ;04.12.2018;FEY;;LION;49;14500;7200;224;58;96;100;8400;;4162;4163;1;12994;27.94;30.64;31,5;BCS1388054;2;7
009567;17.12.2019;13:38:22;Charge to 10% ;04.12.2018;FEY;;LION;49;14500;7200;224;58;96;100;8400;;4149;4150;1;12993;26.54;28.74;30,8;BCS1388054;2;7
009567;17.12.2019;20:36:00;Stop          ;04.12.2018;FEY;;LION;49;14500;7200;192;59;10;10;8400;3000;3358;3360;1;12993;34.64;35.04;33,6;BCS1388054;2;7
009567;18.12.2019;08:31:17;Fastcharge    ;04.12.2018;FEY;;LION;49;14500;7200;192;59;10;10;8400;3000;3369;3371;1;12993;26.24;28.74;31,6;BCS1388054;2;7
009567;18.12.2019;14:28:27;Stop          ;04.12.2018;FEY;;LION;49;14500;7200;224;59;96;100;8400;;4160;4159;1;12994;30.64;31.34;32,0;BCS1388054;2;7
009567;19.12.2019;08:23:50;Charge to 60% ;04.12.2018;FEY;;LION;49;14500;7200;224;59;97;100;8400;;4147;4146;1;12993;26.14;28.64;31,5;BCS1388054;2;7
009567;19.12.2019;11:32:11;Stop          ;04.12.2018;FEY;;LION;49;14500;7200;192;60;58;60;8400;3000;3755;3754;1;12993;34.24;36.44;34,0;BCS1388054;2;7
009567;19.12.2019;12:16:37;Cycle         ;04.12.2018;FEY;;LION;49;14500;7200;192;60;58;60;8400;3000;3770;3769;1;12994;30.94;31.24;32,7;BCS1388054;2;7
009567;20.12.2019;17:35:47;Stop          ;04.12.2018;FEY;;LION;49;14500;7200;224;61;94;100;8400;;4152;4153;1;12993;26.54;28.64;31,1;BCS1388054;2;7
009567;06.01.2020;06:34:42;Charge to 60% ;04.12.2018;FEY;;LION;49;14500;7200;224;61;93;99;8400;;4122;4122;1;12994;26.24;28.64;31,9;BCS1388054;2;7
009567;06.01.2020;09:32:11;Stop          ;04.12.2018;FEY;;LION;49;14500;7200;192;61;57;60;8400;3000;3669;3723;1;12994;33.44;38.44;33,2;BCS1388054;2;7
009567;06.01.2020;09:50:30;Fastcharge    ;04.12.2018;FEY;;LION;49;14500;7200;192;61;57;60;8400;3000;3767;3769;1;12994;32.14;31.94;32,7;BCS1388054;2;7
009567;06.01.2020;13:08:34;Stop          ;04.12.2018;FEY;;LION;49;14500;7200;224;61;95;100;8400;;4163;4166;1;12995;30.04;31.24;31,6;BCS1388054;2;7

File: 009597.txt
Serialnumber ; Date ; Time ; Action ; Date of Manufacture ; Manufacturer ; Battery Name ; Device-Chemistry ; Specification-Info ; Design-Capacity [mAh] ; Design-Voltage [mV] ; Battery Status ; Cycle Count ; SOC [%] ; Relativ SOC[%] ; Desired Voltage [mV]; Desired Current [mA]; Cell Voltage 1 [mV] ; Cell Voltage 2 [mV] ; Max_Error [%] ; Busvoltage[mV] ; Battery Temperature [°C] ; Charger Temperature [°C] ; Batterysystem ; Case ; PLace
009597;07.12.2020;04:14:28;Cycle         ;04.12.2018;FEY;;LION;49;14500;7200;192;3;98;98;8400;;4150;4151;1;13007;25.94;28.04;30,3;BCS1388054;4;1
009597;08.12.2020;16:19:56;Stop          ;04.12.2018;FEY;;LION;49;14500;7200;192;3;98;98;8400;;4147;4148;1;13007;28.04;29.64;31,9;BCS1388054;4;1
009597;12.01.2021;04:17:33;Charge to 90% ;04.12.2018;FEY;;LION;49;14500;7200;192;3;96;97;8400;;4131;4132;1;13019;23.34;22.64;23,6;BCS1388054;4;18
009597;12.01.2021;04:57:16;Stop          ;04.12.2018;FEY;;LION;49;14500;7200;192;3;90;90;8400;3000;4059;4060;1;13014;27.84;28.24;31,6;BCS1388054;4;18
009597;12.01.2021;05:21:49;Cycle         ;04.12.2018;FEY;;LION;49;14500;7200;192;3;90;90;8400;3000;4064;4065;1;13016;27.44;26.84;30,4;BCS1388054;4;18
009597;13.01.2021;08:19:19;Stop          ;04.12.2018;FEY;;LION;49;14500;7200;224;5;96;100;8400;;4154;4156;1;13016;27.04;26.84;30,7;BCS1388054;4;18
009597;22.02.2021;17:31:59;Normalcharge  ;04.12.2018;FEY;;LION;49;14500;7200;192;5;56;58;8400;3000;3715;3717;1;13004;26.54;26.64;31,6;BCS1388054;2;5
009597;22.02.2021;21:53:27;Stop          ;04.12.2018;FEY;;LION;49;14500;7200;224;5;97;100;8400;;4163;4163;1;13006;27.24;28.44;31,7;BCS1388054;2;5

File: 009601.txt
Serialnumber ; Date ; Time ; Action ; Date of Manufacture ; Manufacturer ; Battery Name ; Device-Chemistry ; Specification-Info ; Design-Capacity [mAh] ; Design-Voltage [mV] ; Battery Status ; Cycle Count ; SOC [%] ; Relativ SOC[%] ; Desired Voltage [mV]; Desired Current [mA]; Cell Voltage 1 [mV] ; Cell Voltage 2 [mV] ; Max_Error [%] ; Busvoltage[mV] ; Battery Temperature [°C] ; Charger Temperature [°C] ; Batterysystem ; Case ; PLace
009601;07.12.2020;04:14:25;Cycle          ;04.12.2018;FEY;;LION;49;14500;7200;16576;1;97;98;;;4153;4153;1;13013;25.94;27.34;30,3;BCS1388054;3;14
009601;08.12.2020;16:19:50;Stop           ;04.12.2018;FEY;;LION;49;14500;7200;16576;1;97;99;;;4150;4150;1;13014;28.14;29.14;31,9;BCS1388054;3;14
009601;12.01.2021;04:17:47;Charge to 90% ;04.12.2018;FEY;;LION;49;14500;7200;16576;1;95;97;;;4134;4134;1;13033;23.24;23.94;23,8;BCS1388054;7;1
009601;12.01.2021;04:57:19;Stop          ;04.12.2018;FEY;;LION;49;14500;7200;192;1;89;90;8400;3000;4063;4062;1;13028;27.34;29.74;31,5;BCS1388054;7;1
009601;12.01.2021;05:22:01;Cycle         ;04.12.2018;FEY;;LION;49;14500;7200;192;1;89;90;8400;3000;4068;4067;1;13029;27.14;28.34;30,4;BCS1388054;7;1
009601;13.01.2021;08:19:29;Stop          ;04.12.2018;FEY;;LION;49;14500;7200;224;3;97;100;8400;;4154;4156;1;13029;26.74;28.24;30,7;BCS1388054;7;1
009601;21.02.2021;13:43:19;Normalcharge  ;04.12.2018;FEY;;LION;49;14500;7200;192;3;59;61;8400;3000;3748;3755;1;12986;24.14;25.24;27,5;BCS1388054;1;12
009601;22.02.2021;17:08:49;Stop          ;04.12.2018;FEY;;LION;49;14500;7200;224;3;97;100;8400;;4148;4152;1;12987;26.24;26.44;30,0;BCS1388054;1;12

File: 009612.txt
Serialnumber ; Date ; Time ; Action ; Date of Manufacture ; Manufacturer ; Battery Name ; Device-Chemistry ; Specification-Info ; Design-Capacity [mAh] ; Design-Voltage [mV] ; Battery Status ; Cycle Count ; SOC [%] ; Relativ SOC[%] ; Desired Voltage [mV]; Desired Current [mA]; Cell Voltage 1 [mV] ; Cell Voltage 2 [mV] ; Max_Error [%] ; Busvoltage[mV] ; Battery Temperature [°C] ; Charger Temperature [°C] ; Batterysystem ; Case ; PLace
009612;07.12.2020;04:14:25;Cycle          ;04.12.2018;FEY;;LION;49;14500;7200;224;3;96;99;8400;;4144;4143;1;13002;25.74;26.84;30,3;BCS1388054;3;4
009612;08.12.2020;16:19:50;Stop           ;04.12.2018;FEY;;LION;49;14500;7200;224;5;97;100;8400;;4152;4152;1;13002;27.84;28.44;31,9;BCS1388054;3;4
009612;12.01.2021;04:17:33;Charge to 90% ;04.12.2018;FEY;;LION;49;14500;7200;224;5;95;99;8400;;4132;4132;1;12999;23.04;23.64;23,6;BCS1388054;4;5
009612;12.01.2021;04:57:16;Stop          ;04.12.2018;FEY;;LION;49;14500;7200;192;5;85;90;8400;3000;3944;3995;1;12994;27.84;30.94;31,6;BCS1388054;4;5
009612;12.01.2021;05:21:49;Cycle         ;04.12.2018;FEY;;LION;49;14500;7200;192;5;85;90;8400;3000;4049;4050;1;12995;27.54;27.14;30,4;BCS1388054;4;5
009612;13.01.2021;08:19:19;Stop          ;04.12.2018;FEY;;LION;49;14500;7200;224;6;95;100;8400;;4154;4154;1;12996;27.04;27.34;30,7;BCS1388054;4;5
009612;21.02.2021;13:43:19;Normalcharge  ;04.12.2018;FEY;;LION;49;14500;7200;192;6;92;97;8400;;4113;4113;1;13016;23.54;25.04;27,5;BCS1388054;1;16
009612;22.02.2021;17:08:49;Stop          ;04.12.2018;FEY;;LION;49;14500;7200;192;6;92;97;8400;;4113;4112;1;13015;26.14;26.84;30,0;BCS1388054;1;16

File: 009634.txt
Serialnumber ; Date ; Time ; Action ; Date of Manufacture ; Manufacturer ; Battery Name ; Device-Chemistry ; Specification-Info ; Design-Capacity [mAh] ; Design-Voltage [mV] ; Battery Status ; Cycle Count ; SOC [%] ; Relativ SOC[%] ; Desired Voltage [mV]; Desired Current [mA]; Cell Voltage 1 [mV] ; Cell Voltage 2 [mV] ; Max_Error [%] ; Busvoltage[mV] ; Battery Temperature [°C] ; Charger Temperature [°C] ; Batterysystem ; Case ; PLace
009634;10.12.2019;15:28:47;Ladung auf 30% ;04.12.2018;FEY;;LION;49;14500;7200;224;51;93;100;8400;;4129;4129;1;13010;22.84;23.94;27,1;BCS1388054;3;4
009634;10.12.2019;20:47:21;Stop           ;04.12.2018;FEY;;LION;49;14500;7200;192;52;29;30;8400;3000;3558;3558;1;13010;33.74;32.74;33,5;BCS1388054;3;4
009634;11.12.2019;08:48:36;Fastcharge    ;04.12.2018;FEY;;LION;49;14500;7200;192;52;29;30;8400;3000;3567;3567;1;13009;26.44;27.24;31,9;BCS1388054;3;4
009634;11.12.2019;13:39:41;Stop           ;04.12.2018;FEY;;LION;49;14500;7200;224;52;94;100;8400;;4162;4161;1;13010;30.24;29.64;32,5;BCS1388054;3;4
009634;11.12.2019;15:46:24;Ladung auf 10% ;04.12.2018;FEY;;LION;49;14500;7200;224;52;96;100;8400;;4153;4152;1;13009;27.34;27.64;31,4;BCS1388054;3;4
009634;11.12.2019;22:48:44;Stop           ;04.12.2018;FEY;;LION;49;14500;7200;192;53;10;10;8400;3000;3353;3353;1;13010;34.44;33.04;33,6;BCS1388054;3;4
009634;12.12.2019;08:44:58;Normalcharge  ;04.12.2018;FEY;;LION;49;14500;7200;192;53;9;10;8400;3000;3363;3363;1;13009;26.64;27.44;31,9;BCS1388054;3;4
009634;12.12.2019;16:39:24;Stop           ;04.12.2018;FEY;;LION;49;14500;7200;224;53;95;100;8400;;4160;4159;1;13010;29.44;29.14;31,7;BCS1388054;3;4
009634;13.12.2019;10:47:57;Ladung auf 10% ;04.12.2018;FEY;;LION;49;14500;7200;224;53;95;100;8400;;4147;4147;1;13010;26.64;27.44;32,0;BCS1388054;3;4
009634;13.12.2019;15:42:18;Stop           ;04.12.2018;FEY;;LION;49;14500;7200;192;54;34;36;8400;3000;3497;3550;1;13546;33.24;36.94;34,6;BCS1388054;3;4
009634;13.12.2019;15:42:20;Cycle          ;04.12.2018;FEY;;LION;49;14500;7200;192;54;34;36;8400;3000;3497;3550;1;13546;33.24;37.04;34,6;BCS1388054;3;4
009634;14.12.2019;22:36:33;Stop           ;04.12.2018;FEY;;LION;49;14500;7200;224;55;93;99;8400;;4151;4150;1;13009;26.84;27.34;31,6;BCS1388054;3;4
009634;16.12.2019;07:43:10;Ladung auf 10% ;04.12.2018;FEY;;LION;49;14500;7200;224;55;93;100;8400;;4145;4144;1;13009;26.44;26.74;31,9;BCS1388054;3;4
009634;16.12.2019;14:34:27;Stop           ;04.12.2018;FEY;;LION;49;14500;7200;192;56;10;10;8400;3000;3364;3364;1;13010;33.04;31.84;32,5;BCS1388054;3;4
009634;16.12.2019;14:44:07;Ladung auf 90% ;04.12.2018;FEY;;LION;49;14500;7200;192;56;10;10;8400;3000;3367;3366;1;13009;32.34;30.54;31,7;BCS1388054;3;4
009634;16.12.2019;20:48:39;Stop           ;04.12.2018;FEY;;LION;49;14500;7200;192;56;84;90;8400;3000;4056;4057;1;13011;31.94;30.94;31,9;BCS1388054;3;4
009634;17.12.2019;08:37:44;Fastcharge    ;04.12.2018;FEY;;LION;49;14500;7200;192;56;84;90;8400;3000;4046;4047;1;13009;26.44;27.14;31,5;BCS1388054;3;4
009634;17.12.2019;10:30:44;Stop           ;04.12.2018;FEY;;LION;49;14500;7200;224;56;94;100;8400;;4161;4161;1;13010;28.14;28.54;31,4;BCS1388054;3;4
009634;17.12.2019;13:38:28;Ladung auf 10% ;04.12.2018;FEY;;LION;49;14500;7200;224;56;94;100;8400;;4148;4149;1;13010;26.84;27.24;30,8;BCS1388054;3;4
009634;17.12.2019;20:32:04;Stop           ;04.12.2018;FEY;;LION;49;14500;7200;192;57;10;10;8400;3000;3363;3363;1;13010;34.44;33.24;34,6;BCS1388054;3;4
009634;18.12.2019;08:31:22;Fastcharge    ;04.12.2018;FEY;;LION;49;14500;7200;192;57;10;10;8400;3000;3373;3374;1;13010;26.64;27.34;31,6;BCS1388054;3;4
009634;18.12.2019;14:26:33;Stop           ;04.12.2018;FEY;;LION;49;14500;7200;224;57;94;100;8400;;4163;4164;1;13009;30.34;29.74;32,5;BCS1388054;3;4
009634;19.12.2019;08:23:54;Ladung auf 60% ;04.12.2018;FEY;;LION;49;14500;7200;224;57;95;100;8400;;4149;4150;1;13009;26.54;27.24;31,6;BCS1388054;3;4
009634;19.12.2019;11:28:29;Stop           ;04.12.2018;FEY;;LION;49;14500;7200;192;58;57;60;8400;3000;3761;3765;1;13010;34.34;34.54;35,1;BCS1388054;3;4
009634;19.12.2019;12:16:41;Cycle          ;04.12.2018;FEY;;LION;49;14500;7200;192;58;57;60;8400;3000;3773;3778;1;13010;30.84;29.64;32,7;BCS1388054;3;4
009634;20.12.2019;17:23:28;Stop           ;04.12.2018;FEY;;LION;49;14500;7200;224;59;93;100;8400;;4150;4150;1;13010;26.94;27.44;31,9;BCS1388054;3;4
009634;06.01.2020;06:34:46;Ladung auf 60% ;04.12.2018;FEY;;LION;49;14500;7200;192;59;92;98;8400;;4121;4120;1;13009;26.64;27.14;31,9;BCS1388054;3;4
009634;06.01.2020;09:29:20;Stop           ;04.12.2018;FEY;;LION;49;14500;7200;192;60;57;60;8400;3000;3767;3770;1;13009;33.44;33.04;34,2;BCS1388054;3;4
009634;06.01.2020;09:50:34;Fastcharge    ;04.12.2018;FEY;;LION;49;14500;7200;192;60;57;60;8400;3000;3776;3778;1;13011;31.94;30.44;32,7;BCS1388054;3;4
009634;06.01.2020;13:06:26;Stop           ;04.12.2018;FEY;;LION;49;14500;7200;224;60;94;100;8400;;4161;4162;1;13011;29.84;29.34;32,1;BCS1388054;3;4