Folder: Battery_sort_V2/V2/reader/Batterieverzeichnis_new (part 2)

File: 009605.txt
Serialnumber ; Date ; Time ; Action ; Date of Manufacture ; Manufacturer ; Battery Name ; Device-Chemistry ; Specification-Info ; Design-Capacity [mAh] ; Design-Voltage [mV] ; Battery Status ; Cycle Count ; SOC [%] ; Relativ SOC[%] ; Desired Voltage [mV]; Desired Current [mA]; Cell Voltage 1 [mV] ; Cell Voltage 2 [mV] ; Max_Error [%] ; Busvoltage[mV] ; Battery Temperature [°C] ; Charger Temperature [°C] ; Batterysystem ; Case ; PLace
009605;10.12.2019;15:28:47;Ladung auf 30% ;04.12.2018;FEY;;LION;49;14500;7200;224;54;93;100;8400;;4130;4129;1;13020;22.64;24.64;27,1;BCS1388054;3;3
009605;10.12.2019;20:47:21;Stop           ;04.12.2018;FEY;;LION;49;14500;7200;192;55;29;30;8400;3000;3557;3557;1;13017;33.84;34.44;33,5;BCS1388054;3;3
009605;11.12.2019;08:48:36;Fastcharge    ;04.12.2018;FEY;;LION;49;14500;7200;192;55;29;30;8400;3000;3567;3568;1;13019;26.34;28.24;31,9;BCS1388054;3;3
009605;11.12.2019;13:39:41;Stop           ;04.12.2018;FEY;;LION;49;14500;7200;224;55;94;100;8400;;4164;4164;1;13019;30.44;31.14;32,5;BCS1388054;3;3
009605;11.12.2019;15:46:24;Ladung auf 10% ;04.12.2018;FEY;;LION;49;14500;7200;224;55;96;100;8400;;4153;4153;1;13018;27.24;28.74;31,4;BCS1388054;3;3
009605;11.12.2019;22:48:44;Stop           ;04.12.2018;FEY;;LION;49;14500;7200;192;56;10;10;8400;3000;3352;3353;1;13018;34.54;34.54;33,6;BCS1388054;3;3
009605;12.12.2019;08:44:58;Normalcharge  ;04.12.2018;FEY;;LION;49;14500;7200;192;56;9;10;8400;3000;3363;3364;1;13018;26.54;28.44;31,9;BCS1388054;3;3
009605;12.12.2019;16:39:24;Stop           ;04.12.2018;FEY;;LION;49;14500;7200;224;56;96;100;8400;;4163;4164;1;13019;29.44;30.54;31,7;BCS1388054;3;3
009605;13.12.2019;10:47:57;Ladung auf 10% ;04.12.2018;FEY;;LION;49;14500;7200;224;56;96;100;8400;;4148;4148;1;13019;26.54;28.44;32,0;BCS1388054;3;3
009605;13.12.2019;15:42:18;Stop           ;04.12.2018;FEY;;LION;49;14500;7200;192;57;35;36;8400;3000;3502;3554;1;13555;33.24;38.54;34,6;BCS1388054;3;3
009605;13.12.2019;15:42:20;Cycle          ;04.12.2018;FEY;;LION;49;14500;7200;192;57;35;36;8400;3000;3502;3554;1;13555;33.24;38.54;34,6;BCS1388054;3;3
009605;14.12.2019;22:36:33;Stop           ;04.12.2018;FEY;;LION;49;14500;7200;224;58;93;99;8400;;4151;4151;1;13020;26.74;28.34;31,6;BCS1388054;3;3
009605;16.12.2019;07:43:10;Ladung auf 10% ;04.12.2018;FEY;;LION;49;14500;7200;224;58;94;100;8400;;4145;4145;1;13020;26.24;27.84;31,9;BCS1388054;3;3
009605;16.12.2019;14:34:27;Stop           ;04.12.2018;FEY;;LION;49;14500;7200;192;59;10;10;8400;3000;3360;3361;1;13018;33.24;33.84;32,5;BCS1388054;3;3
009605;16.12.2019;14:44:07;Ladung auf 90% ;04.12.2018;FEY;;LION;49;14500;7200;192;59;10;10;8400;3000;3364;3366;1;13019;32.54;31.74;31,7;BCS1388054;3;3
009605;16.12.2019;20:48:39;Stop           ;04.12.2018;FEY;;LION;49;14500;7200;192;59;84;90;8400;3000;4060;4061;1;13019;32.14;32.64;31,9;BCS1388054;3;3
009605;17.12.2019;08:37:44;Fastcharge    ;04.12.2018;FEY;;LION;49;14500;7200;192;59;84;90;8400;3000;4045;4046;1;13020;26.34;28.14;31,5;BCS1388054;3;3
009605;17.12.2019;10:30:44;Stop           ;04.12.2018;FEY;;LION;49;14500;7200;224;59;95;100;8400;;4163;4163;1;13018;28.04;30.04;31,4;BCS1388054;3;3
009605;17.12.2019;13:38:28;Ladung auf 10% ;04.12.2018;FEY;;LION;49;14500;7200;224;59;95;100;8400;;4149;4149;1;13020;26.74;28.34;30,8;BCS1388054;3;3
009605;17.12.2019;20:32:04;Stop           ;04.12.2018;FEY;;LION;49;14500;7200;192;60;10;10;8400;3000;3358;3360;1;13019;34.64;35.24;34,6;BCS1388054;3;3
009605;18.12.2019;08:31:22;Fastcharge    ;04.12.2018;FEY;;LION;49;14500;7200;192;60;10;10;8400;3000;3371;3372;1;13020;26.44;28.44;31,6;BCS1388054;3;3
009605;18.12.2019;14:26:33;Stop           ;04.12.2018;FEY;;LION;49;14500;7200;224;60;94;100;8400;;4163;4163;1;13019;30.44;31.24;32,5;BCS1388054;3;3
009605;19.12.2019;08:23:54;Ladung auf 60% ;04.12.2018;FEY;;LION;49;14500;7200;224;60;96;100;8400;;4148;4148;1;13019;26.44;28.14;31,6;BCS1388054;3;3
009605;19.12.2019;11:28:29;Stop           ;04.12.2018;FEY;;LION;49;14500;7200;192;61;58;60;8400;3000;3756;3757;1;13018;34.44;38.04;35,1;BCS1388054;3;3
009605;19.12.2019;12:16:41;Cycle          ;04.12.2018;FEY;;LION;49;14500;7200;192;61;58;60;8400;3000;3777;3779;1;13020;30.94;30.74;32,7;BCS1388054;3;3
009605;20.12.2019;17:23:28;Stop           ;04.12.2018;FEY;;LION;49;14500;7200;224;62;93;100;8400;;4151;4151;1;13020;26.84;28.44;31,9;BCS1388054;3;3
009605;06.01.2020;06:34:46;Ladung auf 60% ;04.12.2018;FEY;;LION;49;14500;7200;192;62;92;98;8400;;4121;4121;1;13020;26.44;28.24;31,9;BCS1388054;3;3
009605;06.01.2020;09:29:20;Stop           ;04.12.2018;FEY;;LION;49;14500;7200;192;62;57;60;8400;3000;3773;3775;1;13020;33.44;34.54;34,2;BCS1388054;3;3
009605;06.01.2020;09:50:34;Fastcharge    ;04.12.2018;FEY;;LION;49;14500;7200;192;62;57;60;8400;3000;3783;3785;1;13020;32.04;31.44;32,7;BCS1388054;3;3
009605;06.01.2020;13:06:26;Stop           ;04.12.2018;FEY;;LION;49;14500;7200;224;62;94;100;8400;;4161;4161;1;13021;29.94;30.54;32,1;BCS1388054;3;3

File: 009606.txt
Serialnumber ; Date ; Time ; Action ; Date of Manufacture ; Manufacturer ; Battery Name ; Device-Chemistry ; Specification-Info ; Design-Capacity [mAh] ; Design-Voltage [mV] ; Battery Status ; Cycle Count ; SOC [%] ; Relativ SOC[%] ; Desired Voltage [mV]; Desired Current [mA]; Cell Voltage 1 [mV] ; Cell Voltage 2 [mV] ; Max_Error [%] ; Busvoltage[mV] ; Battery Temperature [°C] ; Charger Temperature [°C] ; Batterysystem ; Case ; PLace
009606;10.12.2019;15:29:01;Charge to 30% ;03.12.2018;FEY;;LION;49;14500;7200;224;50;94;100;8400;;4130;4129;1;13010;22.54;24.64;27,1;BCS1388054;5;4
009606;10.12.2019;20:48:54;Stop          ;03.12.2018;FEY;;LION;49;14500;7200;192;51;29;30;8400;3000;3560;3558;1;13007;33.04;32.74;33,1;BCS1388054;5;4
009606;11.12.2019;08:48:53;Fastcharge    ;03.12.2018;FEY;;LION;49;14500;7200;192;51;29;30;8400;3000;3569;3569;1;13008;26.44;28.14;31,9;BCS1388054;5;4
009606;11.12.2019;13:40:11;Stop          ;03.12.2018;FEY;;LION;49;14500;7200;224;51;95;100;8400;;4162;4162;1;13008;29.74;30.24;32,4;BCS1388054;5;4
009606;11.12.2019;15:46:40;Charge to 10% ;03.12.2018;FEY;;LION;49;14500;7200;224;51;97;100;8400;;4153;4153;1;13007;27.14;28.34;31,4;BCS1388054;5;4
009606;11.12.2019;22:49:07;Stop          ;03.12.2018;FEY;;LION;49;14500;7200;192;52;10;10;8400;3000;3349;3348;1;13006;33.94;33.94;33,5;BCS1388054;5;4
009606;12.12.2019;08:45:10;Normalcharge  ;03.12.2018;FEY;;LION;49;14500;7200;192;52;9;10;8400;3000;3363;3363;1;13007;26.64;28.24;31,7;BCS1388054;5;4
009606;12.12.2019;16:41:20;Stop          ;03.12.2018;FEY;;LION;49;14500;7200;224;52;96;100;8400;;4162;4162;1;13008;29.04;29.64;31,6;BCS1388054;5;4
009606;13.12.2019;10:48:05;Charge to 10% ;03.12.2018;FEY;;LION;49;14500;7200;224;52;97;100;8400;;4148;4148;1;13008;26.64;28.44;32,0;BCS1388054;5;4
009606;13.12.2019;15:40:55;Stop          ;03.12.2018;FEY;;LION;49;14500;7200;192;53;36;37;8400;3000;3505;3554;1;13510;32.44;37.34;34,6;BCS1388054;5;4
009606;13.12.2019;15:41:42;Cycle         ;03.12.2018;FEY;;LION;49;14500;7200;192;53;36;37;8400;3000;3586;3585;1;13006;32.44;35.04;34,5;BCS1388054;5;4
009606;14.12.2019;22:39:35;Stop          ;03.12.2018;FEY;;LION;49;14500;7200;224;54;93;99;8400;;4151;4150;1;13007;26.64;28.24;31,7;BCS1388054;5;4
009606;16.12.2019;07:43:20;Charge to 10% ;03.12.2018;FEY;;LION;49;14500;7200;224;54;94;100;8400;;4145;4144;1;13008;26.44;27.34;31,9;BCS1388054;5;4
009606;16.12.2019;14:34:29;Stop          ;03.12.2018;FEY;;LION;49;14500;7200;192;55;10;10;8400;3000;3363;3363;1;13007;32.24;32.34;32,5;BCS1388054;5;4
009606;16.12.2019;14:44:17;Charge to 90% ;03.12.2018;FEY;;LION;49;14500;7200;192;55;10;10;8400;3000;3368;3367;1;13008;31.64;30.44;31,9;BCS1388054;5;4
009606;16.12.2019;20:48:55;Stop          ;03.12.2018;FEY;;LION;49;14500;7200;192;55;85;90;8400;3000;4059;4060;1;13007;31.54;31.44;31,9;BCS1388054;5;4
009606;17.12.2019;08:37:53;Fastcharge    ;03.12.2018;FEY;;LION;49;14500;7200;192;55;85;90;8400;3000;4046;4046;1;13008;26.54;28.14;31,6;BCS1388054;5;4
009606;17.12.2019;10:33:46;Stop          ;03.12.2018;FEY;;LION;49;14500;7200;224;55;95;100;8400;;4160;4162;1;13009;28.04;28.84;31,1;BCS1388054;5;4
009606;17.12.2019;10:33:46;Stop          ;03.12.2018;FEY;;LION;49;14500;7200;224;55;95;100;8400;;4160;4162;1;13009;28.04;28.84;31,1;BCS1388054;5;4
009606;17.12.2019;13:38:36;Charge to 10% ;03.12.2018;FEY;;LION;49;14500;7200;224;55;95;100;8400;;4149;4150;1;13007;26.74;27.94;30,8;BCS1388054;5;4
009606;17.12.2019;20:33:18;Stop          ;03.12.2018;FEY;;LION;49;14500;7200;192;56;10;10;8400;3000;3361;3361;1;13007;33.84;33.84;34,5;BCS1388054;5;4
009606;18.12.2019;08:31:30;Fastcharge    ;03.12.2018;FEY;;LION;49;14500;7200;192;56;10;10;8400;3000;3373;3373;1;13008;26.64;28.14;31,6;BCS1388054;5;4
009606;18.12.2019;14:29:27;Stop          ;03.12.2018;FEY;;LION;49;14500;7200;224;56;95;100;8400;;4161;4163;1;13008;29.74;29.94;31,7;BCS1388054;5;4
009606;19.12.2019;08:24:02;Charge to 60% ;03.12.2018;FEY;;LION;49;14500;7200;224;56;96;100;8400;;4148;4150;1;13008;26.54;28.14;31,5;BCS1388054;5;4
009606;19.12.2019;11:31:09;Stop          ;03.12.2018;FEY;;LION;49;14500;7200;192;57;58;60;8400;3000;3769;3769;1;13006;33.64;33.54;34,4;BCS1388054;5;4
009606;19.12.2019;12:16:49;Cycle         ;03.12.2018;FEY;;LION;49;14500;7200;192;57;58;60;8400;3000;3780;3780;1;13008;30.24;30.24;32,7;BCS1388054;5;4
009606;20.12.2019;17:27:50;Stop          ;03.12.2018;FEY;;LION;49;14500;7200;224;58;94;100;8400;;4151;4150;1;13008;26.84;28.04;31,0;BCS1388054;5;4
009606;06.01.2020;06:34:55;Charge to 60% ;03.12.2018;FEY;;LION;49;14500;7200;224;58;93;99;8400;;4122;4121;1;13007;26.84;28.34;31,9;BCS1388054;5;4
009606;06.01.2020;09:30:26;Stop          ;03.12.2018;FEY;;LION;49;14500;7200;192;58;57;60;8400;3000;3766;3764;1;13007;32.94;33.44;33,9;BCS1388054;5;4
009606;06.01.2020;09:50:42;Fastcharge    ;03.12.2018;FEY;;LION;49;14500;7200;192;58;57;60;8400;3000;3778;3776;1;13008;31.44;30.84;32,7;BCS1388054;5;4
009606;06.01.2020;13:09:56;Stop          ;03.12.2018;FEY;;LION;49;14500;7200;224;58;94;100;8400;;4163;4164;1;13008;29.34;29.54;31,4;BCS1388054;5;4

File: 009613.txt
Serialnumber ; Date ; Time ; Action ; Date of Manufacture ; Manufacturer ; Battery Name ; Device-Chemistry ; Specification-Info ; Design-Capacity [mAh] ; Design-Voltage [mV] ; Battery Status ; Cycle Count ; SOC [%] ; Relativ SOC[%] ; Desired Voltage [mV]; Desired Current [mA]; Cell Voltage 1 [mV] ; Cell Voltage 2 [mV] ; Max_Error [%] ; Busvoltage[mV] ; Battery Temperature [°C] ; Charger Temperature [°C] ; Batterysystem ; Case ; PLace
009613;07.12.2020;04:14:25;Cycle          ;04.12.2018;FEY;;LION;49;14500;7200;16576;4;98;99;;;4146;4145;1;12998;25.34;26.64;30,3;BCS1388054;3;6
009613;08.12.2020;16:19:50;Stop           ;04.12.2018;FEY;;LION;49;14500;7200;16576;4;98;100;;;4144;4142;1;12997;27.34;27.94;31,9;BCS1388054;3;6
009613;12.01.2021;04:17:40;Charge to 90% ;04.12.2018;FEY;;LION;49;14500;7200;16576;4;96;98;;;4129;4128;1;13017;22.74;24.24;23,6;BCS1388054;6;17
009613;12.01.2021;05:00:55;Stop          ;04.12.2018;FEY;;LION;49;14500;7200;192;4;89;90;8400;3000;4051;4050;1;13012;26.64;30.04;31,2;BCS1388054;6;17
009613;12.01.2021;05:21:57;Cycle         ;04.12.2018;FEY;;LION;49;14500;7200;192;4;89;90;8400;3000;4056;4055;1;13013;26.54;28.84;30,4;BCS1388054;6;17
009613;13.01.2021;08:31:18;Stop          ;04.12.2018;FEY;;LION;49;14500;7200;224;5;98;100;8400;;4155;4156;1;13011;26.44;28.84;31,1;BCS1388054;6;17
009613;21.02.2021;13:43:49;Normalcharge  ;04.12.2018;FEY;;LION;49;14500;7200;224;5;96;99;8400;;4131;4132;1;12998;22.54;23.64;27,7;BCS1388054;3;8
009613;21.02.2021;20:44:52;Stop           ;04.12.2018;FEY;;LION;49;14500;7200;224;5;96;99;8400;;4131;4132;1;12993;26.54;28.44;31,2;BCS1388054;3;8

File: 009619.txt
Serialnumber ; Date ; Time ; Action ; Date of Manufacture ; Manufacturer ; Battery Name ; Device-Chemistry ; Specification-Info ; Design-Capacity [mAh] ; Design-Voltage [mV] ; Battery Status ; Cycle Count ; SOC [%] ; Relativ SOC[%] ; Desired Voltage [mV]; Desired Current [mA]; Cell Voltage 1 [mV] ; Cell Voltage 2 [mV] ; Max_Error [%] ; Busvoltage[mV] ; Battery Temperature [°C] ; Charger Temperature [°C] ; Batterysystem ; Case ; PLace
009619;10.12.2019;15:28:47;Ladung auf 30% ;04.12.2018;FEY;;LION;49;14500;7200;224;53;92;100;8400;;4131;4131;1;13012;22.44;24.54;27,1;BCS1388054;3;10
009619;10.12.2019;20:47:21;Stop           ;04.12.2018;FEY;;LION;49;14500;7200;192;54;28;30;8400;3000;3560;3560;1;13008;33.64;33.74;33,5;BCS1388054;3;10
009619;11.12.2019;08:48:36;Fastcharge    ;04.12.2018;FEY;;LION;49;14500;7200;192;54;28;30;8400;3000;3568;3568;1;13010;26.14;27.84;31,9;BCS1388054;3;10
009619;11.12.2019;13:39:41;Stop           ;04.12.2018;FEY;;LION;49;14500;7200;224;54;93;100;8400;;4159;4160;1;13010;30.24;30.44;32,5;BCS1388054;3;10
009619;11.12.2019;15:46:24;Ladung auf 10% ;04.12.2018;FEY;;LION;49;14500;7200;224;54;95;100;8400;;4152;4153;1;13009;27.04;28.34;31,4;BCS1388054;3;10
009619;11.12.2019;22:48:44;Stop           ;04.12.2018;FEY;;LION;49;14500;7200;192;55;10;10;8400;3000;3355;3355;1;13009;34.34;34.04;33,6;BCS1388054;3;10
009619;12.12.2019;08:44:58;Normalcharge  ;04.12.2018;FEY;;LION;49;14500;7200;192;55;9;10;8400;3000;3363;3364;1;13010;26.34;28.04;31,9;BCS1388054;3;10
009619;12.12.2019;16:39:24;Stop           ;04.12.2018;FEY;;LION;49;14500;7200;224;55;95;100;8400;;4159;4159;1;13011;29.34;29.94;31,7;BCS1388054;3;10
009619;13.12.2019;10:47:57;Ladung auf 10% ;04.12.2018;FEY;;LION;49;14500;7200;224;55;94;100;8400;;4148;4148;1;13010;26.34;28.04;32,0;BCS1388054;3;10
009619;13.12.2019;15:42:18;Stop           ;04.12.2018;FEY;;LION;49;14500;7200;192;56;33;35;8400;3000;3494;3546;1;13550;33.34;38.54;34,6;BCS1388054;3;10
009619;13.12.2019;15:42:20;Cycle          ;04.12.2018;FEY;;LION;49;14500;7200;192;56;33;35;8400;3000;3494;3546;1;13009;33.34;38.54;34,6;BCS1388054;3;10
009619;14.12.2019;22:36:33;Stop           ;04.12.2018;FEY;;LION;49;14500;7200;224;57;92;99;8400;;4152;4153;1;13011;26.54;27.94;31,6;BCS1388054;3;10
009619;16.12.2019;07:43:10;Ladung auf 10% ;04.12.2018;FEY;;LION;49;14500;7200;224;57;92;100;8400;;4147;4147;1;13011;26.04;27.34;31,9;BCS1388054;3;10
009619;16.12.2019;14:34:27;Stop           ;04.12.2018;FEY;;LION;49;14500;7200;192;58;10;10;8400;3000;3367;3368;1;13010;32.94;32.84;32,5;BCS1388054;3;10
009619;16.12.2019;14:44:07;Ladung auf 90% ;04.12.2018;FEY;;LION;49;14500;7200;192;58;10;10;8400;3000;3368;3369;1;13011;32.24;31.54;31,7;BCS1388054;3;10
009619;16.12.2019;20:48:39;Stop           ;04.12.2018;FEY;;LION;49;14500;7200;192;58;83;90;8400;3000;4056;4057;1;13012;31.94;31.84;31,9;BCS1388054;3;10
009619;17.12.2019;08:37:44;Fastcharge    ;04.12.2018;FEY;;LION;49;14500;7200;192;58;83;90;8400;3000;4048;4048;1;13011;26.14;27.74;31,5;BCS1388054;3;10
009619;17.12.2019;10:30:44;Stop           ;04.12.2018;FEY;;LION;49;14500;7200;224;58;93;100;8400;;4159;4159;1;13010;27.94;29.24;31,4;BCS1388054;3;10
009619;17.12.2019;13:38:28;Ladung auf 10% ;04.12.2018;FEY;;LION;49;14500;7200;224;58;93;100;8400;;4149;4148;1;13011;26.54;27.94;30,8;BCS1388054;3;10
009619;17.12.2019;20:32:04;Stop           ;04.12.2018;FEY;;LION;49;14500;7200;192;59;10;10;8400;3000;3367;3368;1;13010;34.34;34.24;34,6;BCS1388054;3;10
009619;18.12.2019;08:31:22;Fastcharge    ;04.12.2018;FEY;;LION;49;14500;7200;192;59;10;11;8400;3000;3375;3376;1;13011;26.24;27.94;31,6;BCS1388054;3;10
009619;18.12.2019;14:26:33;Stop           ;04.12.2018;FEY;;LION;49;14500;7200;224;59;94;100;8400;;4159;4157;1;13011;30.34;30.54;32,5;BCS1388054;3;10
009619;19.12.2019;08:23:54;Ladung auf 60% ;04.12.2018;FEY;;LION;49;14500;7200;224;59;94;100;8400;;4148;4147;1;13010;26.14;27.84;31,6;BCS1388054;3;10
009619;19.12.2019;11:28:29;Stop           ;04.12.2018;FEY;;LION;49;14500;7200;192;60;57;60;8400;3000;3764;3763;1;13009;34.34;35.34;35,1;BCS1388054;3;10
009619;19.12.2019;12:16:41;Cycle          ;04.12.2018;FEY;;LION;49;14500;7200;192;60;57;60;8400;3000;3774;3774;1;13011;30.84;30.44;32,7;BCS1388054;3;10
009619;20.12.2019;17:23:28;Stop           ;04.12.2018;FEY;;LION;49;14500;7200;224;61;92;99;8400;;4152;4152;1;13010;26.64;28.04;31,9;BCS1388054;3;10
009619;06.01.2020;06:34:46;Ladung auf 60% ;04.12.2018;FEY;;LION;49;14500;7200;192;61;91;98;8400;;4123;4123;1;13011;26.24;27.84;31,9;BCS1388054;3;10
009619;06.01.2020;09:29:20;Stop           ;04.12.2018;FEY;;LION;49;14500;7200;192;62;56;60;8400;3000;3772;3772;1;13011;33.44;34.14;34,2;BCS1388054;3;10
009619;06.01.2020;09:50:34;Fastcharge    ;04.12.2018;FEY;;LION;49;14500;7200;192;62;56;60;8400;3000;3779;3780;1;13011;31.84;31.24;32,7;BCS1388054;3;10
009619;06.01.2020;13:06:26;Stop           ;04.12.2018;FEY;;LION;49;14500;7200;224;62;93;100;8400;;4160;4161;1;13011;29.84;30.24;32,1;BCS1388054;3;10

File: 009622.txt
Serialnumber ; Date ; Time ; Action ; Date of Manufacture ; Manufacturer ; Battery Name ; Device-Chemistry ; Specification-Info ; Design-Capacity [mAh] ; Design-Voltage [mV] ; Battery Status ; Cycle Count ; SOC [%] ; Relativ SOC[%] ; Desired Voltage [mV]; Desired Current [mA]; Cell Voltage 1 [mV] ; Cell Voltage 2 [mV] ; Max_Error [%] ; Busvoltage[mV] ; Battery Temperature [°C] ; Charger Temperature [°C] ; Batterysystem ; Case ; PLace
009622;10.12.2019;15:29:09;Charge to 30% ;04.12.2018;FEY;;LION;49;14500;7200;224;28;93;99;8400;;4120;4121;1;13021;22.44;24.44;27,1;BCS1388054;6;4
009622;10.12.2019;20:46:41;Stop          ;04.12.2018;FEY;;LION;49;14500;7200;192;29;29;30;8400;3000;3557;3559;1;13018;32.34;31.84;33,6;BCS1388054;6;4
009622;11.12.2019;08:49:03;Fastcharge    ;04.12.2018;FEY;;LION;49;14500;7200;192;29;29;30;8400;3000;3567;3568;1;13018;26.14;27.24;31,9;BCS1388054;6;4
009622;11.12.2019;13:39:30;Stop          ;04.12.2018;FEY;;LION;49;14500;7200;224;29;95;100;8400;;4162;4164;1;13018;29.24;29.14;32,5;BCS1388054;6;4
009622;11.12.2019;15:46:47;Charge to 10% ;04.12.2018;FEY;;LION;49;14500;7200;224;29;97;100;8400;;4155;4156;1;13019;26.84;27.34;31,4;BCS1388054;6;4
009622;11.12.2019;22:52:10;Stop          ;04.12.2018;FEY;;LION;49;14500;7200;192;30;10;10;8400;3000;3353;3354;1;13017;33.04;31.54;33,0;BCS1388054;6;4
009622;12.12.2019;08:45:18;Normalcharge  ;04.12.2018;FEY;;LION;49;14500;7200;192;30;9;9;8400;3000;3363;3364;1;13018;26.34;27.34;31,7;BCS1388054;6;4
009622;12.12.2019;16:41:29;Stop          ;04.12.2018;FEY;;LION;49;14500;7200;224;30;96;100;8400;;4163;4163;1;13019;28.54;28.44;31,5;BCS1388054;6;4
009622;13.12.2019;10:48:09;Charge to 10% ;04.12.2018;FEY;;LION;49;14500;7200;224;30;96;100;8400;;4151;4151;1;13018;26.34;27.54;32,0;BCS1388054;6;4
009622;13.12.2019;13:51:54;Stop          ;04.12.2018;FEY;;LION;49;14500;7200;192;31;58;61;8400;3000;3681;3734;1;13499;33.64;37.94;36,1;BCS1388054;6;4
009622;13.12.2019;13:53:13;Fastcharge    ;04.12.2018;FEY;;LION;49;14500;7200;192;31;58;61;8400;3000;3767;3768;1;13016;33.64;35.64;35,8;BCS1388054;6;4
009622;13.12.2019;13:53:19;Stop          ;04.12.2018;FEY;;LION;49;14500;7200;192;31;58;61;8400;3000;3768;3769;1;13006;33.64;35.44;35,8;BCS1388054;6;4
009622;13.12.2019;13:53:25;Normalcharge  ;04.12.2018;FEY;;LION;49;14500;7200;192;31;58;61;8400;3000;3768;3769;1;13015;33.64;35.34;35,8;BCS1388054;6;4
009622;13.12.2019;20:04:59;Stop          ;04.12.2018;FEY;;LION;49;14500;7200;224;31;96;100;8400;;4154;4155;1;13019;27.54;28.24;32,0;BCS1388054;6;4
009622;16.12.2019;07:43:27;Charge to 10% ;04.12.2018;FEY;;LION;49;14500;7200;224;31;96;100;8400;;4146;4146;1;13020;26.14;26.14;31,7;BCS1388054;6;4
009622;16.12.2019;14:43:10;Stop          ;04.12.2018;FEY;;LION;49;14500;7200;192;32;10;10;8400;3000;3352;3353;1;13018;31.14;29.74;31,7;BCS1388054;6;4
009622;16.12.2019;14:44:21;Charge to 90% ;04.12.2018;FEY;;LION;49;14500;7200;192;32;10;10;8400;3000;3354;3354;1;13018;31.04;29.44;31,9;BCS1388054;6;4
009622;16.12.2019;20:54:26;Stop          ;04.12.2018;FEY;;LION;49;14500;7200;192;32;86;90;8400;3000;4053;4054;1;13019;31.04;30.24;32,1;BCS1388054;6;4
009622;17.12.2019;08:37:57;Fastcharge    ;04.12.2018;FEY;;LION;49;14500;7200;192;32;86;90;8400;3000;4041;4042;1;13018;26.14;27.24;31,6;BCS1388054;6;4
009622;17.12.2019;13:38:40;Charge to 10% ;04.12.2018;FEY;;LION;49;14500;7200;224;32;96;100;8400;;4153;4153;1;13020;26.44;27.14;30,8;BCS1388054;6;4
009622;17.12.2019;20:41:40;Stop          ;04.12.2018;FEY;;LION;49;14500;7200;192;33;10;10;8400;3000;3352;3353;1;13018;33.04;31.54;32,6;BCS1388054;6;4
009622;18.12.2019;08:31:34;Fastcharge    ;04.12.2018;FEY;;LION;49;14500;7200;192;33;9;9;8400;3000;3363;3364;1;13019;26.34;27.14;31,6;BCS1388054;6;4
009622;18.12.2019;14:33:31;Stop          ;04.12.2018;FEY;;LION;49;14500;7200;224;33;95;100;8400;;4162;4162;1;13019;29.24;28.54;31,4;BCS1388054;6;4
009622;19.12.2019;08:24:06;Charge to 60% ;04.12.2018;FEY;;LION;49;14500;7200;224;33;96;100;8400;;4151;4151;1;13019;26.24;27.24;31,5;BCS1388054;6;4
009622;19.12.2019;11:34:24;Stop          ;04.12.2018;FEY;;LION;49;14500;7200;192;34;58;60;8400;3000;3772;3773;1;13019;32.74;31.54;33,5;BCS1388054;6;4
009622;19.12.2019;12:16:53;Cycle         ;04.12.2018;FEY;;LION;49;14500;7200;192;34;58;60;8400;3000;3781;3782;1;13019;29.74;29.04;32,7;BCS1388054;6;4
009622;20.12.2019;17:31:05;Stop          ;04.12.2018;FEY;;LION;49;14500;7200;224;35;94;100;8400;;4153;4154;1;13021;26.44;27.04;30,6;BCS1388054;6;4
009622;06.01.2020;06:34:58;Charge to 60% ;04.12.2018;FEY;;LION;49;14500;7200;192;35;93;98;8400;;4122;4123;1;13021;26.44;27.34;31,9;BCS1388054;6;4
009622;06.01.2020;09:30:42;Stop          ;04.12.2018;FEY;;LION;49;14500;7200;192;35;57;60;8400;3000;3760;3761;1;13020;32.24;33.04;33,7;BCS1388054;6;4
009622;06.01.2020;09:50:46;Fastcharge    ;04.12.2018;FEY;;LION;49;14500;7200;192;35;57;60;8400;3000;3776;3778;1;13020;30.74;29.64;32,7;BCS1388054;6;4
009622;06.01.2020;13:06:22;Stop          ;04.12.2018;FEY;;LION;49;14500;7200;224;35;95;100;8400;;4164;4164;1;13020;28.94;28.94;32,1;BCS1388054;6;4
009622;06.01.2020;09:50:46;Fastcharge    ;04.12.2018;FEY;;LION;49;14500;7200;192;35;57;60;8400;3000;3776;3778;1;13020;30.74;29.64;32,7;BCS1388054;6;4
009622;06.01.2020;13:06:22;Stop          ;04.12.2018;FEY;;LION;49;14500;7200;224;35;95;100;8400;;4164;4164;1;13020;28.94;28.94;32,1;BCS1388054;6;4