Folder: Battery_sort_V2/V2/reader/Batterieverzeichnis_new (part 3)

File: 009625.txt
Serialnumber ; Date ; Time ; Action ; Date of Manufacture ; Manufacturer ; Battery Name ; Device-Chemistry ; Specification-Info ; Design-Capacity [mAh] ; Design-Voltage [mV] ; Battery Status ; Cycle Count ; SOC [%] ; Relativ SOC[%] ; Desired Voltage [mV]; Desired Current [mA]; Cell Voltage 1 [mV] ; Cell Voltage 2 [mV] ; Max_Error [%] ; Busvoltage[mV] ; Battery Temperature [°C] ; Charger Temperature [°C] ; Batterysystem ; Case ; PLace
009625;10.12.2019;15:28:40;Charge to 30% ;03.12.2018;FEY;;LION;49;14500;7200;224;49;93;100;8400;;4131;4132;1;13014;22.34;25.24;27,1;BCS1388054;2;5
009625;10.12.2019;20:48:37;Stop          ;03.12.2018;FEY;;LION;49;14500;7200;192;50;29;30;8400;3000;3558;3558;1;13013;32.74;32.74;33,2;BCS1388054;2;5
009625;11.12.2019;08:48:24;Fastcharge    ;03.12.2018;FEY;;LION;49;14500;7200;192;50;29;30;8400;3000;3568;3568;1;13014;25.64;28.24;31,9;BCS1388054;2;5
009625;11.12.2019;13:39:47;Stop          ;03.12.2018;FEY;;LION;49;14500;7200;224;50;95;100;8400;;4164;4164;1;13013;29.04;30.14;32,5;BCS1388054;2;5
009625;11.12.2019;15:46:18;Charge to 10% ;03.12.2018;FEY;;LION;49;14500;7200;224;50;96;100;8400;;4153;4153;1;13014;26.44;28.44;31,4;BCS1388054;2;5
009625;11.12.2019;22:49:04;Stop          ;03.12.2018;FEY;;LION;49;14500;7200;192;51;10;10;8400;3000;3349;3349;1;13012;33.54;33.44;33,6;BCS1388054;2;5
009625;12.12.2019;08:44:52;Normalcharge  ;03.12.2018;FEY;;LION;49;14500;7200;192;51;9;9;8400;3000;3362;3362;1;13014;25.84;28.24;31,9;BCS1388054;2;5
009625;12.12.2019;16:40:06;Stop          ;03.12.2018;FEY;;LION;49;14500;7200;224;51;96;100;8400;;4162;4164;1;13014;28.34;29.64;31,7;BCS1388054;2;5
009625;13.12.2019;10:47:50;Charge to 10% ;03.12.2018;FEY;;LION;49;14500;7200;224;51;96;100;8400;;4148;4149;1;13013;25.84;28.44;32,0;BCS1388054;2;5
009625;13.12.2019;15:42:08;Cycle         ;03.12.2018;FEY;;LION;49;14500;7200;192;52;35;37;8400;3000;3503;3554;1;13576;32.24;36.54;34,6;BCS1388054;2;5
009625;13.12.2019;15:42:08;Stop          ;03.12.2018;FEY;;LION;49;14500;7200;192;52;35;37;8400;3000;3503;3554;1;13576;32.24;36.54;34,6;BCS1388054;2;5
009625;14.12.2019;22:48:51;Stop          ;03.12.2018;FEY;;LION;49;14500;7200;224;53;94;99;8400;;4152;4151;1;13014;25.94;28.34;32,0;BCS1388054;2;5
009625;16.12.2019;07:43:06;Charge to 10% ;03.12.2018;FEY;;LION;49;14500;7200;224;53;94;100;8400;;4146;4145;1;13015;25.54;27.84;31,9;BCS1388054;2;5
009625;16.12.2019;14:37:54;Stop          ;03.12.2018;FEY;;LION;49;14500;7200;192;55;10;10;8400;3000;3364;3363;1;13013;32.14;31.64;32,4;BCS1388054;2;5
009625;16.12.2019;14:44:03;Charge to 90% ;03.12.2018;FEY;;LION;49;14500;7200;192;55;10;10;8400;3000;3366;3366;1;13014;31.64;31.04;31,9;BCS1388054;2;5
009625;16.12.2019;20:51:09;Stop          ;03.12.2018;FEY;;LION;49;14500;7200;192;55;85;90;8400;3000;4060;4060;1;13015;30.84;30.74;31,6;BCS1388054;2;5
009625;17.12.2019;08:37:40;Fastcharge    ;03.12.2018;FEY;;LION;49;14500;7200;192;55;85;90;8400;3000;4048;4048;1;13014;25.64;28.14;31,6;BCS1388054;2;5
009625;17.12.2019;10:30:36;Stop          ;03.12.2018;FEY;;LION;49;14500;7200;224;55;95;100;8400;;4161;4161;1;13015;27.14;29.04;31,5;BCS1388054;2;5
009625;17.12.2019;13:38:22;Charge to 10% ;03.12.2018;FEY;;LION;49;14500;7200;224;55;95;100;8400;;4149;4150;1;13015;25.94;28.14;30,8;BCS1388054;2;5
009625;17.12.2019;20:36:00;Stop          ;03.12.2018;FEY;;LION;49;14500;7200;192;56;10;10;8400;3000;3364;3364;1;13013;33.34;32.94;33,6;BCS1388054;2;5
009625;18.12.2019;08:31:17;Fastcharge    ;03.12.2018;FEY;;LION;49;14500;7200;192;56;10;10;8400;3000;3373;3374;1;13015;25.74;28.14;31,6;BCS1388054;2;5
009625;18.12.2019;14:28:27;Stop          ;03.12.2018;FEY;;LION;49;14500;7200;224;56;95;100;8400;;4162;4164;1;13014;29.04;29.94;32,0;BCS1388054;2;5
009625;19.12.2019;08:23:50;Charge to 60% ;03.12.2018;FEY;;LION;49;14500;7200;224;56;96;100;8400;;4149;4150;1;13014;25.64;28.14;31,5;BCS1388054;2;5
009625;19.12.2019;11:32:11;Stop          ;03.12.2018;FEY;;LION;49;14500;7200;192;56;58;60;8400;3000;3769;3771;1;13013;33.24;33.34;34,0;BCS1388054;2;5
009625;19.12.2019;12:16:37;Cycle         ;03.12.2018;FEY;;LION;49;14500;7200;192;56;58;60;8400;3000;3780;3781;1;13013;29.74;30.24;32,7;BCS1388054;2;5
009625;20.12.2019;17:35:47;Stop          ;03.12.2018;FEY;;LION;49;14500;7200;224;57;94;100;8400;;4151;4151;1;13015;25.84;28.04;31,1;BCS1388054;2;5
009625;06.01.2020;06:34:42;Charge to 60% ;03.12.2018;FEY;;LION;49;14500;7200;192;57;93;98;8400;;4121;4121;1;13014;25.74;28.04;31,9;BCS1388054;2;5
009625;06.01.2020;09:32:11;Stop          ;03.12.2018;FEY;;LION;49;14500;7200;192;57;57;60;8400;3000;3773;3775;1;13014;32.44;32.54;33,2;BCS1388054;2;5
009625;06.01.2020;09:50:30;Fastcharge    ;03.12.2018;FEY;;LION;49;14500;7200;192;57;57;60;8400;3000;3781;3782;1;13015;30.94;30.94;32,7;BCS1388054;2;5
009625;06.01.2020;13:08:34;Stop          ;03.12.2018;FEY;;LION;49;14500;7200;224;57;95;100;8400;;4161;4159;1;13016;28.54;29.44;31,6;BCS1388054;2;5

File: 009632.txt
Serialnumber ; Date ; Time ; Action ; Date of Manufacture ; Manufacturer ; Battery Name ; Device-Chemistry ; Specification-Info ; Design-Capacity [mAh] ; Design-Voltage [mV] ; Battery Status ; Cycle Count ; SOC [%] ; Relativ SOC[%] ; Desired Voltage [mV]; Desired Current [mA]; Cell Voltage 1 [mV] ; Cell Voltage 2 [mV] ; Max_Error [%] ; Busvoltage[mV] ; Battery Temperature [°C] ; Charger Temperature [°C] ; Batterysystem ; Case ; PLace
009632;10.12.2019;15:28:40;Charge to 30% ;04.12.2018;FEY;;LION;49;14500;7200;224;48;92;99;8400;;4132;4131;1;13013;23.04;24.84;27,1;BCS1388054;2;8
009632;10.12.2019;20:48:37;Stop          ;04.12.2018;FEY;;LION;49;14500;7200;192;49;28;30;8400;3000;3561;3560;1;13010;34.24;34.14;33,2;BCS1388054;2;8
009632;11.12.2019;08:48:24;Fastcharge    ;04.12.2018;FEY;;LION;49;14500;7200;192;49;28;30;8400;3000;3568;3567;1;13012;26.54;28.34;31,9;BCS1388054;2;8
009632;11.12.2019;13:39:47;Stop          ;04.12.2018;FEY;;LION;49;14500;7200;224;49;94;100;8400;;4162;4162;1;13011;31.34;31.04;32,5;BCS1388054;2;8
009632;11.12.2019;15:46:18;Charge to 10% ;04.12.2018;FEY;;LION;49;14500;7200;224;49;95;100;8400;;4154;4154;1;13011;27.64;28.84;31,4;BCS1388054;2;8
009632;11.12.2019;22:49:04;Stop          ;04.12.2018;FEY;;LION;49;14500;7200;192;50;10;10;8400;3000;3358;3358;1;13011;35.14;34.64;33,6;BCS1388054;2;8
009632;12.12.2019;08:44:52;Normalcharge  ;04.12.2018;FEY;;LION;49;14500;7200;192;50;9;10;8400;3000;3366;3367;1;13011;26.74;28.54;31,9;BCS1388054;2;8
009632;12.12.2019;16:40:06;Stop          ;04.12.2018;FEY;;LION;49;14500;7200;224;50;95;100;8400;;4159;4162;1;13010;30.14;30.54;31,7;BCS1388054;2;8
009632;13.12.2019;10:47:50;Charge to 10% ;04.12.2018;FEY;;LION;49;14500;7200;224;50;94;100;8400;;4148;4151;1;13011;26.74;28.54;32,0;BCS1388054;2;8
009632;13.12.2019;15:42:08;Cycle         ;04.12.2018;FEY;;LION;49;14500;7200;192;51;34;36;8400;3000;3499;3551;1;13571;33.94;39.34;34,6;BCS1388054;2;8
009632;13.12.2019;15:42:08;Stop          ;04.12.2018;FEY;;LION;49;14500;7200;192;51;34;36;8400;3000;3499;3551;1;13571;33.94;39.34;34,6;BCS1388054;2;8
009632;14.12.2019;22:48:51;Stop          ;04.12.2018;FEY;;LION;49;14500;7200;224;52;93;100;8400;;4152;4150;1;13011;27.04;28.54;32,0;BCS1388054;2;8
009632;16.12.2019;07:43:06;Charge to 10% ;04.12.2018;FEY;;LION;49;14500;7200;224;52;93;100;8400;;4146;4145;1;13012;26.44;28.04;31,9;BCS1388054;2;8
009632;16.12.2019;14:37:54;Stop          ;04.12.2018;FEY;;LION;49;14500;7200;192;53;10;10;8400;3000;3366;3366;1;13011;33.64;32.94;32,4;BCS1388054;2;8
009632;16.12.2019;14:44:03;Charge to 90% ;04.12.2018;FEY;;LION;49;14500;7200;192;53;10;10;8400;3000;3367;3367;1;13012;33.24;32.04;31,9;BCS1388054;2;8
009632;16.12.2019;20:51:09;Stop          ;04.12.2018;FEY;;LION;49;14500;7200;192;53;83;90;8400;3000;4054;4055;1;13013;32.64;32.14;31,6;BCS1388054;2;8
009632;17.12.2019;08:37:40;Fastcharge    ;04.12.2018;FEY;;LION;49;14500;7200;192;53;83;90;8400;3000;4046;4046;1;13012;26.54;28.24;31,6;BCS1388054;2;8
009632;17.12.2019;10:30:36;Stop          ;04.12.2018;FEY;;LION;49;14500;7200;224;53;94;100;8400;;4163;4164;1;13011;28.44;30.34;31,5;BCS1388054;2;8
009632;17.12.2019;13:38:22;Charge to 10% ;04.12.2018;FEY;;LION;49;14500;7200;224;53;94;100;8400;;4150;4150;1;13012;26.94;28.44;30,8;BCS1388054;2;8
009632;17.12.2019;20:36:00;Stop          ;04.12.2018;FEY;;LION;49;14500;7200;192;54;10;10;8400;3000;3364;3365;1;13010;34.94;34.34;33,6;BCS1388054;2;8
009632;18.12.2019;08:31:17;Fastcharge    ;04.12.2018;FEY;;LION;49;14500;7200;192;54;10;11;8400;3000;3373;3374;1;13012;26.64;28.44;31,6;BCS1388054;2;8
009632;18.12.2019;14:28:27;Stop          ;04.12.2018;FEY;;LION;49;14500;7200;224;54;94;100;8400;;4160;4163;1;13012;31.34;31.04;32,0;BCS1388054;2;8
009632;19.12.2019;08:23:50;Charge to 60% ;04.12.2018;FEY;;LION;49;14500;7200;224;54;95;100;8400;;4149;4151;1;13011;26.54;28.24;31,5;BCS1388054;2;8
009632;19.12.2019;11:32:11;Stop          ;04.12.2018;FEY;;LION;49;14500;7200;192;55;57;60;8400;3000;3768;3770;1;13011;34.64;34.84;34,0;BCS1388054;2;8
009632;19.12.2019;12:16:37;Cycle         ;04.12.2018;FEY;;LION;49;14500;7200;192;55;57;60;8400;3000;3776;3779;1;13011;31.64;30.84;32,7;BCS1388054;2;8
009632;20.12.2019;17:35:47;Stop          ;04.12.2018;FEY;;LION;49;14500;7200;224;56;93;100;8400;;4152;4153;1;13012;27.04;28.24;31,1;BCS1388054;2;8
009632;06.01.2020;06:34:42;Charge to 60% ;04.12.2018;FEY;;LION;49;14500;7200;192;56;91;98;8400;;4123;4123;1;13012;26.64;28.24;31,9;BCS1388054;2;8
009632;06.01.2020;09:32:11;Stop          ;04.12.2018;FEY;;LION;49;14500;7200;192;56;56;60;8400;3000;3774;3775;1;13012;33.84;33.94;33,2;BCS1388054;2;8
009632;06.01.2020;09:50:30;Fastcharge    ;04.12.2018;FEY;;LION;49;14500;7200;192;56;56;60;8400;3000;3780;3782;1;13013;32.64;31.54;32,7;BCS1388054;2;8
009632;06.01.2020;13:08:34;Stop          ;04.12.2018;FEY;;LION;49;14500;7200;224;56;93;100;8400;;4160;4160;1;13013;30.74;30.44;31,6;BCS1388054;2;8

File: 009643.txt
Serialnumber ; Date ; Time ; Action ; Date of Manufacture ; Manufacturer ; Battery Name ; Device-Chemistry ; Specification-Info ; Design-Capacity [mAh] ; Design-Voltage [mV] ; Battery Status ; Cycle Count ; SOC [%] ; Relativ SOC[%] ; Desired Voltage [mV]; Desired Current [mA]; Cell Voltage 1 [mV] ; Cell Voltage 2 [mV] ; Max_Error [%] ; Busvoltage[mV] ; Battery Temperature [°C] ; Charger Temperature [°C] ; Batterysystem ; Case ; PLace
009643;10.12.2019;15:28:34;Charge to 30% ;03.12.2018;FEY;;LION;49;14500;7200;192;48;92;98;8400;;4108;4108;1;13007;23.24;25.94;27,1;BCS1388054;1;18
009643;10.12.2019;20:42:17;Stop          ;03.12.2018;FEY;;LION;49;14500;7200;192;49;29;30;8400;3000;3557;3555;1;13005;31.14;34.64;34,1;BCS1388054;1;18
009643;11.12.2019;08:48:18;Fastcharge    ;03.12.2018;FEY;;LION;49;14500;7200;192;49;29;30;8400;3000;3568;3567;1;13007;25.64;27.44;31,9;BCS1388054;1;18
009643;11.12.2019;13:40:21;Stop          ;03.12.2018;FEY;;LION;49;14500;7200;224;49;95;100;8400;;4161;4162;1;13006;27.74;30.14;32,4;BCS1388054;1;18
009643;11.12.2019;15:45:57;Charge to 30% ;03.12.2018;FEY;;LION;49;14500;7200;224;49;96;100;8400;;4152;4152;1;13006;26.14;27.84;31,5;BCS1388054;1;18
009643;11.12.2019;15:46:00;Stop          ;03.12.2018;FEY;;LION;49;14500;7200;224;49;96;100;8400;;4152;4152;1;13006;26.14;27.84;31,5;BCS1388054;1;18
009643;11.12.2019;15:46:13;Charge to 10% ;03.12.2018;FEY;;LION;49;14500;7200;224;49;96;100;8400;;4151;4152;1;13006;26.14;27.84;31,5;BCS1388054;1;18
009643;11.12.2019;22:50:20;Stop          ;03.12.2018;FEY;;LION;49;14500;7200;192;50;10;10;8400;3000;3351;3351;1;13005;31.34;33.34;33,4;BCS1388054;1;18
009643;12.12.2019;08:44:40;Normalcharge  ;03.12.2018;FEY;;LION;49;14500;7200;192;50;9;10;8400;3000;3362;3362;1;13006;25.84;27.64;31,9;BCS1388054;1;18
009643;12.12.2019;16:39:22;Stop          ;03.12.2018;FEY;;LION;49;14500;7200;224;50;96;100;8400;;4162;4163;1;13006;27.44;29.74;31,7;BCS1388054;1;18
009643;13.12.2019;10:47:47;Charge to 10% ;03.12.2018;FEY;;LION;49;14500;7200;224;50;96;100;8400;;4147;4147;1;13006;25.84;27.64;32,0;BCS1388054;1;18
009643;13.12.2019;15:41:58;Stop          ;03.12.2018;FEY;;LION;49;14500;7200;192;51;35;37;8400;3000;3502;3552;1;13650;30.64;39.44;34,6;BCS1388054;1;18
009643;13.12.2019;15:42:01;Cycle         ;03.12.2018;FEY;;LION;49;14500;7200;192;51;35;37;8400;3000;3502;3552;1;13004;30.64;39.34;34,6;BCS1388054;1;18
009643;14.12.2019;22:41:25;Stop          ;03.12.2018;FEY;;LION;49;14500;7200;224;52;93;99;8400;;4150;4149;1;13008;25.74;27.54;31,9;BCS1388054;1;18
009643;16.12.2019;07:43:03;Charge to 10% ;03.12.2018;FEY;;LION;49;14500;7200;224;52;94;100;8400;;4145;4144;1;13006;25.44;27.04;31,9;BCS1388054;1;18
009643;16.12.2019;14:36:13;Stop          ;03.12.2018;FEY;;LION;49;14500;7200;192;53;10;10;8400;3000;3364;3363;1;13005;30.24;32.64;32,4;BCS1388054;1;18
009643;16.12.2019;14:44:00;Charge to 90% ;03.12.2018;FEY;;LION;49;14500;7200;192;53;10;10;8400;3000;3367;3366;1;13006;29.54;30.54;31,7;BCS1388054;1;18
009643;16.12.2019;20:50:03;Stop          ;03.12.2018;FEY;;LION;49;14500;7200;192;53;85;90;8400;3000;4057;4057;1;13007;29.24;31.64;31,7;BCS1388054;1;18
009643;17.12.2019;08:37:37;Fastcharge    ;03.12.2018;FEY;;LION;49;14500;7200;192;53;85;90;8400;3000;4046;4046;1;13006;25.54;27.34;31,6;BCS1388054;1;18
009643;17.12.2019;10:31:11;Stop          ;03.12.2018;FEY;;LION;49;14500;7200;224;53;95;100;8400;;4160;4162;1;13005;26.74;28.74;31,4;BCS1388054;1;18
009643;17.12.2019;13:38:19;Charge to 10% ;03.12.2018;FEY;;LION;49;14500;7200;224;53;95;100;8400;;4149;4150;1;13006;25.74;27.34;30,8;BCS1388054;1;18
009643;17.12.2019;20:33:50;Stop          ;03.12.2018;FEY;;LION;49;14500;7200;192;55;10;10;8400;3000;3361;3361;1;13006;31.44;33.94;34,2;BCS1388054;1;18
009643;18.12.2019;08:31:14;Fastcharge    ;03.12.2018;FEY;;LION;49;14500;7200;192;55;10;10;8400;3000;3373;3373;1;13006;25.84;27.54;31,6;BCS1388054;1;18
009643;18.12.2019;14:28:33;Stop          ;03.12.2018;FEY;;LION;49;14500;7200;224;55;95;100;8400;;4161;4164;1;13006;27.84;29.94;31,9;BCS1388054;1;18
009643;19.12.2019;08:23:45;Charge to 60% ;03.12.2018;FEY;;LION;49;14500;7200;224;55;96;100;8400;;4147;4150;1;13007;25.54;27.44;31,5;BCS1388054;1;18
009643;19.12.2019;11:29:32;Stop          ;03.12.2018;FEY;;LION;49;14500;7200;192;55;58;60;8400;3000;3767;3768;1;13005;31.64;35.64;34,9;BCS1388054;1;18
009643;19.12.2019;12:16:33;Cycle         ;03.12.2018;FEY;;LION;49;14500;7200;192;55;58;60;8400;3000;3781;3782;1;13006;27.94;29.44;32,7;BCS1388054;1;18
009643;20.12.2019;17:26:19;Stop          ;03.12.2018;FEY;;LION;49;14500;7200;224;56;94;100;8400;;4150;4151;1;13007;25.74;27.44;31,2;BCS1388054;1;18
009643;06.01.2020;06:34:38;Charge to 60% ;03.12.2018;FEY;;LION;49;14500;7200;192;56;92;98;8400;;4122;4122;1;13007;25.74;27.34;31,9;BCS1388054;1;18
009643;06.01.2020;09:30:30;Stop          ;03.12.2018;FEY;;LION;49;14500;7200;192;57;57;60;8400;3000;3773;3772;1;13005;30.84;33.74;33,9;BCS1388054;1;18
009643;06.01.2020;09:50:27;Fastcharge    ;03.12.2018;FEY;;LION;49;14500;7200;192;57;57;60;8400;3000;3783;3783;1;13006;28.94;30.14;32,6;BCS1388054;1;18
009643;06.01.2020;13:07:36;Stop          ;03.12.2018;FEY;;LION;49;14500;7200;224;57;94;100;8400;;4160;4161;1;13007;27.44;29.74;31,7;BCS1388054;1;18

File: 009697.txt
Serialnumber ; Date ; Time ; Action ; Date of Manufacture ; Manufacturer ; Battery Name ; Device-Chemistry ; Specification-Info ; Design-Capacity [mAh] ; Design-Voltage [mV] ; Battery Status ; Cycle Count ; SOC [%] ; Relativ SOC[%] ; Desired Voltage [mV]; Desired Current [mA]; Cell Voltage 1 [mV] ; Cell Voltage 2 [mV] ; Max_Error [%] ; Busvoltage[mV] ; Battery Temperature [°C] ; Charger Temperature [°C] ; Batterysystem ; Case ; PLace
009697;10.12.2019;15:28:33;Charge to 30% ;04.12.2018;FEY;;LION;49;14500;7200;192;46;91;98;8400;;4108;4107;1;13008;23.64;26.64;27,1;BCS1388054;1;3
009697;10.12.2019;20:42:16;Stop          ;04.12.2018;FEY;;LION;49;14500;7200;192;47;28;30;8400;3000;3561;3559;1;13003;32.44;33.94;34,1;BCS1388054;1;3
009697;11.12.2019;08:48:18;Fastcharge    ;04.12.2018;FEY;;LION;49;14500;7200;192;47;28;30;8400;3000;3569;3567;1;13007;26.34;28.94;31,9;BCS1388054;1;3
009697;11.12.2019;13:40:21;Stop          ;04.12.2018;FEY;;LION;49;14500;7200;224;47;94;100;8400;;4162;4162;1;13005;29.54;30.84;32,4;BCS1388054;1;3
009697;11.12.2019;15:45:57;Charge to 30% ;04.12.2018;FEY;;LION;49;14500;7200;224;47;95;100;8400;;4153;4153;1;13007;27.04;29.24;31,5;BCS1388054;1;3
009697;11.12.2019;15:46:00;Stop          ;04.12.2018;FEY;;LION;49;14500;7200;224;47;95;100;8400;;4153;4153;1;13006;27.04;29.14;31,5;BCS1388054;1;3
009697;11.12.2019;15:46:13;Charge to 10% ;04.12.2018;FEY;;LION;49;14500;7200;224;47;95;100;8400;;4153;4153;1;13006;27.04;29.14;31,5;BCS1388054;1;3
009697;11.12.2019;22:50:20;Stop          ;04.12.2018;FEY;;LION;49;14500;7200;192;48;10;10;8400;3000;3353;3353;1;13005;32.94;33.34;33,4;BCS1388054;1;3
009697;12.12.2019;08:44:40;Normalcharge  ;04.12.2018;FEY;;LION;49;14500;7200;192;48;9;10;8400;3000;3363;3363;1;13007;26.44;29.14;31,9;BCS1388054;1;3
009697;12.12.2019;16:39:22;Stop          ;04.12.2018;FEY;;LION;49;14500;7200;224;48;95;100;8400;;4161;4161;1;13005;28.74;30.44;31,7;BCS1388054;1;3
009697;13.12.2019;10:47:47;Charge to 10% ;04.12.2018;FEY;;LION;49;14500;7200;224;48;95;100;8400;;4149;4148;1;13006;26.54;29.24;32,0;BCS1388054;1;3
009697;13.12.2019;15:41:58;Stop          ;04.12.2018;FEY;;LION;49;14500;7200;192;49;34;36;8400;3000;3499;3548;1;13628;32.34;38.74;34,6;BCS1388054;1;3
009697;13.12.2019;15:42:01;Cycle         ;04.12.2018;FEY;;LION;49;14500;7200;192;49;34;36;8400;3000;3573;3572;1;13004;32.34;38.74;34,6;BCS1388054;1;3
009697;14.12.2019;22:41:25;Stop          ;04.12.2018;FEY;;LION;49;14500;7200;224;50;93;99;8400;;4151;4150;1;13007;26.54;28.94;31,9;BCS1388054;1;3
009697;16.12.2019;07:43:03;Charge to 10% ;04.12.2018;FEY;;LION;49;14500;7200;224;50;93;100;8400;;4146;4144;1;13007;26.24;28.54;31,9;BCS1388054;1;3
009697;16.12.2019;14:36:13;Stop          ;04.12.2018;FEY;;LION;49;14500;7200;192;51;10;10;8400;3000;3365;3364;1;13005;31.94;32.44;32,4;BCS1388054;1;3
009697;16.12.2019;14:44:00;Charge to 90% ;04.12.2018;FEY;;LION;49;14500;7200;192;51;10;10;8400;3000;3367;3365;1;13005;31.44;31.44;31,7;BCS1388054;1;3
009697;16.12.2019;20:50:03;Stop          ;04.12.2018;FEY;;LION;49;14500;7200;192;51;84;90;8400;3000;4054;4054;1;13007;31.04;31.54;31,7;BCS1388054;1;3
009697;17.12.2019;08:37:36;Fastcharge    ;04.12.2018;FEY;;LION;49;14500;7200;192;51;84;90;8400;3000;4045;4045;1;13007;26.34;28.84;31,6;BCS1388054;1;3
009697;17.12.2019;10:31:11;Stop          ;04.12.2018;FEY;;LION;49;14500;7200;224;51;94;100;8400;;4163;4164;1;13007;27.74;30.14;31,4;BCS1388054;1;3
009697;17.12.2019;13:38:19;Charge to 10% ;04.12.2018;FEY;;LION;49;14500;7200;224;51;94;100;8400;;4150;4150;1;13007;26.64;28.74;30,8;BCS1388054;1;3
009697;17.12.2019;20:33:50;Stop          ;04.12.2018;FEY;;LION;49;14500;7200;192;52;10;10;8400;3000;3362;3362;1;13005;33.04;33.54;34,2;BCS1388054;1;3
009697;18.12.2019;08:31:14;Fastcharge    ;04.12.2018;FEY;;LION;49;14500;7200;192;52;10;10;8400;3000;3372;3372;1;13007;26.44;28.94;31,6;BCS1388054;1;3
009697;18.12.2019;14:28:33;Stop          ;04.12.2018;FEY;;LION;49;14500;7200;224;52;94;100;8400;;4160;4163;1;13006;29.54;30.64;31,9;BCS1388054;1;3
009697;19.12.2019;08:23:45;Charge to 60% ;04.12.2018;FEY;;LION;49;14500;7200;224;52;95;100;8400;;4148;4150;1;13006;26.34;28.84;31,5;BCS1388054;1;3
009697;19.12.2019;11:29:32;Stop          ;04.12.2018;FEY;;LION;49;14500;7200;192;52;57;60;8400;3000;3762;3764;1;13005;32.94;34.84;34,9;BCS1388054;1;3
009697;19.12.2019;12:16:33;Cycle         ;04.12.2018;FEY;;LION;49;14500;7200;192;52;57;60;8400;3000;3772;3775;1;13006;29.94;30.74;32,7;BCS1388054;1;3
009697;20.12.2019;17:26:19;Stop          ;04.12.2018;FEY;;LION;49;14500;7200;224;53;93;100;8400;;4152;4151;1;13006;26.54;28.74;31,2;BCS1388054;1;3
009697;06.01.2020;06:34:38;Charge to 60% ;04.12.2018;FEY;;LION;49;14500;7200;224;53;92;99;8400;;4122;4121;1;13007;26.34;28.84;31,9;BCS1388054;1;3
009697;06.01.2020;09:30:29;Stop          ;04.12.2018;FEY;;LION;49;14500;7200;192;53;56;60;8400;3000;3763;3762;1;13006;32.24;33.84;33,9;BCS1388054;1;3
009697;06.01.2020;09:50:27;Fastcharge    ;04.12.2018;FEY;;LION;49;14500;7200;192;53;56;60;8400;3000;3771;3771;1;13007;30.84;31.14;32,6;BCS1388054;1;3
009697;06.01.2020;13:07:36;Stop          ;04.12.2018;FEY;;LION;49;14500;7200;224;53;94;100;8400;;4160;4160;1;13008;29.04;30.44;31,7;BCS1388054;1;3