Folder: Battery_sort_V2/V2/reader/Batterieverzeichnis

Note: V2/reader/Batterieverzeichnis/009517.txt
Serialnumber ; Date ; Time ; Action ; Date of Manufacture ; Manufacturer ; Battery Name ; Device-Chemistry ; Specification-Info ; Design-Capacity [mAh] ; Design-Voltage [mV] ; Battery Status ; Cycle Count ; SOC [%] ; Relativ SOC[%] ; Desired Voltage [mV]; Desired Current [mA]; Cell Voltage 1 [mV] ; Cell Voltage 2 [mV] ; Max_Error [%] ; Busvoltage[mV] ; Battery Temperature [°C] ; Charger Temperature [°C] ; Batterysystem ; Case ; PLace
009517;30.11.2020;09:42:55;Stop          ;04.12.2018;FEY;;LION;49;14500;7200;192;3;97;98;8400;;4140;4140;1;13022;27.54;27.54;31,7;BCS1388054;7;6
009517;12.01.2021;04:17:36;Charge to 90% ;04.12.2018;FEY;;LION;49;14500;7200;192;3;96;96;8400;;4123;4123;1;13016;23.14;24.64;23,6;BCS1388054;5;15
009517;12.01.2021;05:15:37;Stop          ;04.12.2018;FEY;;LION;49;14500;7200;192;3;90;90;8400;3000;4064;4064;1;13011;26.84;29.94;31,6;BCS1388054;5;15
009517;12.01.2021;05:21:53;Cycle         ;04.12.2018;FEY;;LION;49;14500;7200;192;3;90;90;8400;3000;4065;4065;1;13012;26.94;29.54;30,6;BCS1388054;5;15
009517;13.01.2021;08:31:10;Stop          ;04.12.2018;FEY;;LION;49;14500;7200;224;4;96;100;8400;;4155;4154;1;13011;27.14;29.54;31,1;BCS1388054;5;15
009517;22.02.2021;17:31:46;Normalcharge  ;04.12.2018;FEY;;LION;49;14500;7200;192;5;50;52;8400;3000;3672;3671;1;12994;26.04;27.74;31,6;BCS1388054;1;8
009517;22.02.2021;23:06:28;Stop          ;04.12.2018;FEY;;LION;49;14500;7200;224;5;98;100;8400;;4155;4155;1;12996;26.94;28.64;30,6;BCS1388054;1;8

Note: V2/reader/Batterieverzeichnis/009551.txt
Serialnumber ; Date ; Time ; Action ; Date of Manufacture ; Manufacturer ; Battery Name ; Device-Chemistry ; Specification-Info ; Design-Capacity [mAh] ; Design-Voltage [mV] ; Battery Status ; Cycle Count ; SOC [%] ; Relativ SOC[%] ; Desired Voltage [mV]; Desired Current [mA]; Cell Voltage 1 [mV] ; Cell Voltage 2 [mV] ; Max_Error [%] ; Busvoltage[mV] ; Battery Temperature [°C] ; Charger Temperature [°C] ; Batterysystem ; Case ; PLace
009551;12.01.2021;04:17:22;Charge to 90% ;03.12.2018;FEY;;LION;49;14500;7200;16576;5;97;98;;;4129;4128;1;13009;22.94;23.84;23,5;BCS1388054;2;8
009551;12.01.2021;04:54:21;Stop          ;03.12.2018;FEY;;LION;49;14500;7200;192;5;90;90;8400;3000;4048;4046;1;13001;26.34;31.64;31,9;BCS1388054;2;8
009551;12.01.2021;05:21:40;Cycle         ;03.12.2018;FEY;;LION;49;14500;7200;192;5;90;90;8400;3000;4060;4059;1;13002;26.74;28.74;30,6;BCS1388054;2;8
009551;13.01.2021;08:20:19;Stop          ;03.12.2018;FEY;;LION;49;14500;7200;224;6;97;100;8400;;4156;4156;1;13002;27.04;28.54;30,8;BCS1388054;2;8
009551;21.02.2021;13:44:56;Normalcharge  ;03.12.2018;FEY;;LION;49;14500;7200;192;7;64;66;8400;3000;3814;3813;1;13001;22.74;23.74;27,7;BCS1388054;5;7
009551;21.02.2021;19:31:36;Stop          ;03.12.2018;FEY;;LION;49;14500;7200;224;7;98;100;8400;;4154;4152;1;12998;27.14;29.14;30,6;BCS1388054;5;7

Note: V2/reader/Batterieverzeichnis/009662.txt
Serialnumber ; Date ; Time ; Action ; Date of Manufacture ; Manufacturer ; Battery Name ; Device-Chemistry ; Specification-Info ; Design-Capacity [mAh] ; Design-Voltage [mV] ; Battery Status ; Cycle Count ; SOC [%] ; Relativ SOC[%] ; Desired Voltage [mV]; Desired Current [mA]; Cell Voltage 1 [mV] ; Cell Voltage 2 [mV] ; Max_Error [%] ; Busvoltage[mV] ; Battery Temperature [°C] ; Charger Temperature [°C] ; Batterysystem ; Case ; PLace
009662;30.11.2020;09:42:55;Stop          ;03.12.2018;FEY;;LION;49;14500;7200;224;3;98;100;8400;;4155;4154;1;13006;27.14;28.74;31,7;BCS1388054;7;9
009662;07.02.2021;08:46:54;Normalcharge  ;03.12.2018;FEY;;LION;49;14500;7200;192;3;92;94;8400;3000;4078;4078;1;13004;23.04;24.94;29,2;BCS1388054;3;18
009662;07.02.2021;11:52:16;Stop           ;03.12.2018;FEY;;LION;49;14500;7200;224;3;98;100;8400;;4151;4150;1;13004;25.24;26.64;29,7;BCS1388054;3;18
009662;03.03.2021;08:17:29;Normalcharge  ;03.12.2018;FEY;;LION;49;14500;7200;192;3;84;87;8400;3000;3995;3994;1;13007;22.54;23.14;23,5;BCS1388054;4;13
009662;03.03.2021;10:32:46;Stop          ;03.12.2018;FEY;;LION;49;14500;7200;224;3;98;100;8400;;4158;4157;1;13001;28.04;29.64;32,0;BCS1388054;4;13

Note: V2/reader/Batterieverzeichnis/009672.txt
009672;29.11.2020;04:33:37;Cycle          ;04.12.2018;FEY;;LION;49;14500;7200;16576;2;98;99;;;4158;4156;1;13004;23.04;24.14;27,4;BCS1388054;3;2
009672;07.12.2020;04:14:28;Cycle         ;04.12.2018;FEY;;LION;49;14500;7200;16576;2;98;98;;;4151;4149;1;13005;25.74;27.44;30,3;BCS1388054;4;14
009672;08.12.2020;16:19:56;Stop          ;04.12.2018;FEY;;LION;49;14500;7200;16576;2;98;98;;;4149;4146;1;13005;27.84;29.04;31,9;BCS1388054;4;14
009672;12.01.2021;04:17:28;Ladung auf 90% ;04.12.2018;FEY;;LION;49;14500;7200;16576;2;97;97;;;4133;4131;1;13007;23.14;23.24;23,6;BCS1388054;3;2
009672;12.01.2021;04:57:30;Stop           ;04.12.2018;FEY;;LION;49;14500;7200;192;2;90;90;8400;3000;4060;4059;1;13001;26.84;29.84;31,5;BCS1388054;3;2
009672;12.01.2021;05:21:45;Cycle          ;04.12.2018;FEY;;LION;49;14500;7200;192;2;90;90;8400;3000;4065;4064;1;13001;27.04;28.34;30,4;BCS1388054;3;2
009672;13.01.2021;08:23:25;Stop           ;04.12.2018;FEY;;LION;49;14500;7200;224;3;97;100;8400;;4156;4157;1;13001;27.24;28.34;31,4;BCS1388054;3;2
009672;21.02.2021;13:43:49;Normalcharge  ;04.12.2018;FEY;;LION;49;14500;7200;224;3;96;99;8400;;4131;4132;1;13008;23.04;23.04;27,7;BCS1388054;3;18
009672;21.02.2021;20:44:52;Stop           ;04.12.2018;FEY;;LION;49;14500;7200;224;3;96;99;8400;;4132;4132;1;13002;26.54;27.34;31,2;BCS1388054;3;18

Note: V2/reader/Batterieverzeichnis/009714.txt
Serialnumber ; Date ; Time ; Action ; Date of Manufacture ; Manufacturer ; Battery Name ; Device-Chemistry ; Specification-Info ; Design-Capacity [mAh] ; Design-Voltage [mV] ; Battery Status ; Cycle Count ; SOC [%] ; Relativ SOC[%] ; Desired Voltage [mV]; Desired Current [mA]; Cell Voltage 1 [mV] ; Cell Voltage 2 [mV] ; Max_Error [%] ; Busvoltage[mV] ; Battery Temperature [°C] ; Charger Temperature [°C] ; Batterysystem ; Case ; PLace
009714;07.02.2021;08:46:59;Normalcharge  ;04.12.2018;FEY;;LION;49;14500;7200;192;2;92;94;8400;3000;4075;4075;1;12993;23.34;26.84;29,2;BCS1388054;4;2
009714;07.02.2021;11:52:20;Stop          ;04.12.2018;FEY;;LION;49;14500;7200;224;2;99;100;8400;;4150;4152;1;12993;25.74;28.14;29,7;BCS1388054;4;2
009714;03.03.2021;08:17:29;Normalcharge  ;04.12.2018;FEY;;LION;49;14500;7200;192;3;85;88;8400;3000;4005;4006;1;13016;23.04;24.04;23,5;BCS1388054;4;10
009714;03.03.2021;10:32:46;Stop          ;04.12.2018;FEY;;LION;49;14500;7200;224;3;97;100;8400;;4157;4158;1;13011;28.04;29.54;32,0;BCS1388054;4;10

Note: V2/reader/Batterieverzeichnis/009737.txt
Serialnumber ; Date ; Time ; Action ; Date of Manufacture ; Manufacturer ; Battery Name ; Device-Chemistry ; Specification-Info ; Design-Capacity [mAh] ; Design-Voltage [mV] ; Battery Status ; Cycle Count ; SOC [%] ; Relativ SOC[%] ; Desired Voltage [mV]; Desired Current [mA]; Cell Voltage 1 [mV] ; Cell Voltage 2 [mV] ; Max_Error [%] ; Busvoltage[mV] ; Battery Temperature [°C] ; Charger Temperature [°C] ; Batterysystem ; Case ; PLace
009737;07.12.2020;04:14:21;Cycle         ;04.12.2018;FEY;;LION;49;14500;7200;224;2;97;99;8400;;4141;4140;1;13003;25.84;27.94;30,3;BCS1388054;2;5
009737;08.12.2020;16:19:44;Stop          ;04.12.2018;FEY;;LION;49;14500;7200;224;3;98;100;8400;;4152;4154;1;13004;27.84;29.34;31,9;BCS1388054;2;5
009737;03.03.2021;08:17:29;Normalcharge  ;04.12.2018;FEY;;LION;49;14500;7200;192;4;82;85;8400;3000;3976;3977;1;13020;23.24;22.54;23,5;BCS1388054;4;18
009737;03.03.2021;10:32:46;Stop          ;04.12.2018;FEY;;LION;49;14500;7200;224;4;98;100;8400;;4164;4164;1;13014;28.24;28.94;32,0;BCS1388054;4;18

File: 001017.txt
Serialnumber ; Date ; Time ; Action ; Date of Manufacture ; Manufacturer ; Battery Name ; Device-Chemistry ; Specification-Info ; Design-Capacity [mAh] ; Design-Voltage [mV] ; Battery Status ; Cycle Count ; SOC [%] ; Relativ SOC[%] ; Desired Voltage [mV]; Desired Current [mA]; Cell Voltage 1 [mV] ; Cell Voltage 2 [mV] ; Max_Error [%] ; Busvoltage[mV] ; Battery Temperature [°C] ; Charger Temperature [°C] ; Batterysystem ; Case ; PLace
001017;13.12.2019;13:53:33;Fastcharge    ;28.11.2017;FEY;;LION;49;14500;7200;192;24;94;98;8400;3000;4109;4108;1;13029;22.04;35.44;35,8;BCS1388054;7;13
001017;13.12.2019;13:55:00;Stop          ;28.11.2017;FEY;;LION;49;14500;7200;128;24;94;98;8400;3000;4158;4139;1;12778;22.54;36.44;36,1;BCS1388054;7;13
001017;13.12.2019;13:55:04;Charge to 10% ;28.11.2017;FEY;;LION;49;14500;7200;128;24;94;98;8400;3000;4157;4139;1;13027;22.54;36.44;36,1;BCS1388054;7;13
001017;13.12.2019;13:55:27;Stop          ;28.11.2017;FEY;;LION;49;14500;7200;128;24;94;98;8400;3000;4115;4115;1;13416;22.64;35.44;36,1;BCS1388054;7;13
001017;13.12.2019;13:55:29;Fastcharge    ;28.11.2017;FEY;;LION;49;14500;7200;192;24;94;98;8400;3000;4080;4096;1;13382;22.64;35.44;36,1;BCS1388054;7;13
001017;13.12.2019;13:55:29;Stop          ;28.11.2017;FEY;;LION;49;14500;7200;192;24;94;98;8400;3000;4080;4096;1;13382;22.64;35.44;36,1;BCS1388054;7;13
001017;13.12.2019;13:55:33;Normalcharge  ;28.11.2017;FEY;;LION;49;14500;7200;192;24;94;98;8400;3000;4080;4096;1;13040;22.64;35.54;36,1;BCS1388054;7;13
001017;13.12.2019;13:55:39;Fastcharge    ;28.11.2017;FEY;;LION;49;14500;7200;192;24;94;98;8400;3000;4107;4107;1;13007;22.74;35.54;36,1;BCS1388054;7;13
001017;13.12.2019;13:55:39;Stop          ;28.11.2017;FEY;;LION;49;14500;7200;192;24;94;98;8400;3000;4107;4107;1;13007;22.74;35.54;36,1;BCS1388054;7;13
001017;13.12.2019;13:56:34;Stop          ;28.11.2017;FEY;;LION;49;14500;7200;128;24;94;98;8400;3000;4156;4138;1;12757;22.94;36.04;36,2;BCS1388054;7;13
001017;13.12.2019;13:56:38;Charge to 95% ;28.11.2017;FEY;;LION;49;14500;7200;128;24;94;98;8400;3000;4156;4138;1;13028;22.94;36.04;36,2;BCS1388054;7;13
001017;13.12.2019;13:56:40;Stop          ;28.11.2017;FEY;;LION;49;14500;7200;128;24;94;98;8400;3000;4156;4138;1;13028;22.94;36.04;36,2;BCS1388054;7;13
001017;13.12.2019;13:56:48;Charge to 90% ;28.11.2017;FEY;;LION;49;14500;7200;128;24;94;98;8400;3000;4117;4118;1;13028;23.04;35.54;36,2;BCS1388054;7;13
001017;13.12.2019;15:42:54;Stop          ;28.11.2017;FEY;;LION;49;14500;7200;192;24;87;90;8400;3000;4031;4031;1;12978;29.34;31.24;34,5;BCS1388054;7;13
001017;13.12.2019;15:42:59;Fastcharge    ;28.11.2017;FEY;;LION;49;14500;7200;192;24;87;90;8400;3000;4031;4031;1;13029;29.34;31.24;34,4;BCS1388054;7;13
001017;13.12.2019;21:04:43;Stop          ;28.11.2017;FEY;;LION;49;14500;7200;224;24;96;100;8400;;4154;4152;1;13030;27.14;28.54;31,7;BCS1388054;7;13

File: 001032.txt
Serialnumber ; Date ; Time ; Action ; Date of Manufacture ; Manufacturer ; Battery Name ; Device-Chemistry ; Specification-Info ; Design-Capacity [mAh] ; Design-Voltage [mV] ; Battery Status ; Cycle Count ; SOC [%] ; Relativ SOC[%] ; Desired Voltage [mV]; Desired Current [mA]; Cell Voltage 1 [mV] ; Cell Voltage 2 [mV] ; Max_Error [%] ; Busvoltage[mV] ; Battery Temperature [°C] ; Charger Temperature [°C] ; Batterysystem ; Case ; PLace
001032;10.12.2019;15:29:09;Charge to 30% ;28.11.2017;FEY;;LION;49;14500;7200;224;12;91;99;8400;;4122;4123;1;13030;22.64;26.14;27,1;BCS1388054;6;15
001032;10.12.2019;20:46:41;Stop          ;28.11.2017;FEY;;LION;49;14500;7200;192;13;28;30;8400;3000;3558;3558;1;13025;33.44;35.54;33,6;BCS1388054;6;15
001032;11.12.2019;08:49:03;Fastcharge    ;28.11.2017;FEY;;LION;49;14500;7200;192;13;28;30;8400;3000;3565;3566;1;13027;26.34;29.04;31,9;BCS1388054;6;15
001032;11.12.2019;13:39:30;Stop          ;28.11.2017;FEY;;LION;49;14500;7200;224;13;94;100;8400;;4161;4162;1;13028;30.44;31.64;32,5;BCS1388054;6;15
001032;11.12.2019;15:46:47;Charge to 10% ;28.11.2017;FEY;;LION;49;14500;7200;224;13;95;100;8400;;4155;4156;1;13027;27.24;29.44;31,4;BCS1388054;6;15
001032;11.12.2019;22:52:10;Stop          ;28.11.2017;FEY;;LION;49;14500;7200;192;14;10;10;8400;3000;3356;3357;1;13025;34.04;35.04;33,0;BCS1388054;6;15
001032;12.12.2019;08:45:18;Normalcharge  ;28.11.2017;FEY;;LION;49;14500;7200;192;14;9;10;8400;3000;3364;3365;1;13027;26.54;29.24;31,7;BCS1388054;6;15
001032;12.12.2019;16:41:29;Stop          ;28.11.2017;FEY;;LION;49;14500;7200;224;14;94;100;8400;;4159;4159;1;13028;29.44;30.94;31,5;BCS1388054;6;15
001032;13.12.2019;10:48:09;Charge to 10% ;28.11.2017;FEY;;LION;49;14500;7200;224;14;94;100;8400;;4150;4150;1;13028;26.54;29.24;32,0;BCS1388054;6;15
001032;13.12.2019;13:51:54;Stop          ;28.11.2017;FEY;;LION;49;14500;7200;192;14;56;60;8400;3000;3668;3719;1;13517;34.74;43.44;36,1;BCS1388054;6;15
001032;16.12.2019;07:43:34;Charge to 10% ;28.11.2017;FEY;;LION;49;14500;7200;192;14;56;60;8400;3000;3773;3771;1;13014;22.54;26.04;31,7;BCS1388054;7;9
001032;16.12.2019;11:52:34;Stop          ;28.11.2017;FEY;;LION;49;14500;7200;192;15;10;10;8400;3000;3360;3360;1;13011;32.14;31.64;34,7;BCS1388054;7;9
001032;16.12.2019;14:44:25;Charge to 90% ;28.11.2017;FEY;;LION;49;14500;7200;192;15;9;10;8400;3000;3364;3365;1;13013;28.84;28.94;31,7;BCS1388054;7;9
001032;16.12.2019;20:53:58;Stop          ;28.11.2017;FEY;;LION;49;14500;7200;192;15;84;90;8400;3000;4049;4049;1;13014;31.34;29.94;32,1;BCS1388054;7;9
001032;17.12.2019;08:38:01;Fastcharge    ;28.11.2017;FEY;;LION;49;14500;7200;192;15;84;90;8400;3000;4041;4041;1;13014;26.04;27.44;31,6;BCS1388054;7;9
001032;17.12.2019;10:36:25;Stop          ;28.11.2017;FEY;;LION;49;14500;7200;224;15;93;100;8400;;4158;4159;1;13014;27.74;28.34;31,5;BCS1388054;7;9
001032;17.12.2019;13:38:44;Charge to 10% ;28.11.2017;FEY;;LION;49;14500;7200;224;15;93;100;8400;;4151;4151;1;13014;26.44;27.44;30,8;BCS1388054;7;9
001032;17.12.2019;20:42:03;Stop          ;28.11.2017;FEY;;LION;49;14500;7200;192;16;10;10;8400;3000;3359;3360;1;13012;33.14;31.04;32,6;BCS1388054;7;9
001032;18.12.2019;08:31:43;Fastcharge    ;28.11.2017;FEY;;LION;49;14500;7200;192;16;9;10;8400;3000;3367;3368;1;13014;26.14;27.44;31,6;BCS1388054;7;9
001032;18.12.2019;14:30:48;Stop          ;28.11.2017;FEY;;LION;49;14500;7200;224;16;93;100;8400;;4160;4161;1;13013;29.94;28.94;31,6;BCS1388054;7;9
001032;19.12.2019;08:24:17;Charge to 60% ;28.11.2017;FEY;;LION;49;14500;7200;224;16;94;100;8400;;4150;4151;1;13014;26.04;27.44;31,6;BCS1388054;7;9
001032;19.12.2019;11:28:26;Stop          ;28.11.2017;FEY;;LION;49;14500;7200;192;17;56;60;8400;3000;3770;3768;1;13011;33.24;32.94;35,1;BCS1388054;7;9
001032;19.12.2019;12:16:57;Cycle         ;28.11.2017;FEY;;LION;49;14500;7200;192;17;56;60;8400;3000;3781;3780;1;13013;30.24;29.34;32,7;BCS1388054;7;9
001032;20.12.2019;17:22:28;Stop          ;28.11.2017;FEY;;LION;49;14500;7200;224;18;93;100;8400;;4153;4156;1;13014;26.54;27.74;31,9;BCS1388054;7;9
001032;06.01.2020;06:35:02;Charge to 60% ;28.11.2017;FEY;;LION;49;14500;7200;192;18;91;98;8400;;4124;4125;1;13014;26.14;27.44;31,9;BCS1388054;7;9
001032;06.01.2020;09:29:52;Stop          ;28.11.2017;FEY;;LION;49;14500;7200;192;18;56;60;8400;3000;3765;3765;1;13013;32.54;32.04;34,0;BCS1388054;7;9
001032;06.01.2020;09:50:50;Fastcharge    ;28.11.2017;FEY;;LION;49;14500;7200;192;18;56;60;8400;3000;3775;3775;1;13014;31.14;29.84;32,7;BCS1388054;7;9
001032;06.01.2020;13:05:11;Stop          ;28.11.2017;FEY;;LION;49;14500;7200;224;18;93;100;8400;;4159;4163;1;13014;29.54;29.14;32,4;BCS1388054;7;9

File: 001067.txt
Serialnumber ; Date ; Time ; Action ; Date of Manufacture ; Manufacturer ; Battery Name ; Device-Chemistry ; Specification-Info ; Design-Capacity [mAh] ; Design-Voltage [mV] ; Battery Status ; Cycle Count ; SOC [%] ; Relativ SOC[%] ; Desired Voltage [mV]; Desired Current [mA]; Cell Voltage 1 [mV] ; Cell Voltage 2 [mV] ; Max_Error [%] ; Busvoltage[mV] ; Battery Temperature [°C] ; Charger Temperature [°C] ; Batterysystem ; Case ; PLace
001067;10.12.2019;15:29:09;Charge to 30% ;15.02.2018;FEY;;LION;49;14500;7200;224;12;93;99;8400;;4124;4123;1;13018;22.64;25.44;27,1;BCS1388054;6;9
001067;10.12.2019;20:46:41;Stop          ;15.02.2018;FEY;;LION;49;14500;7200;192;12;29;30;8400;3000;3553;3551;1;13015;33.34;34.54;33,6;BCS1388054;6;9
001067;11.12.2019;08:49:03;Fastcharge    ;15.02.2018;FEY;;LION;49;14500;7200;192;12;29;30;8400;3000;3564;3563;1;13016;26.54;28.24;31,9;BCS1388054;6;9
001067;11.12.2019;13:39:30;Stop          ;15.02.2018;FEY;;LION;49;14500;7200;224;12;96;100;8400;;4163;4165;1;13016;30.54;30.44;32,5;BCS1388054;6;9
001067;11.12.2019;15:46:47;Charge to 10% ;15.02.2018;FEY;;LION;49;14500;7200;224;12;97;100;8400;;4158;4158;1;13017;27.34;28.44;31,4;BCS1388054;6;9
001067;11.12.2019;22:52:10;Stop          ;15.02.2018;FEY;;LION;49;14500;7200;192;14;10;10;8400;3000;3350;3350;1;13015;34.04;33.54;33,0;BCS1388054;6;9
001067;12.12.2019;08:45:18;Normalcharge  ;15.02.2018;FEY;;LION;49;14500;7200;192;14;8;9;8400;3000;3361;3361;1;13016;26.64;28.34;31,7;BCS1388054;6;9
001067;12.12.2019;16:41:29;Stop          ;15.02.2018;FEY;;LION;49;14500;7200;224;14;96;100;8400;;4163;4163;1;13016;29.54;29.74;31,5;BCS1388054;6;9
001067;13.12.2019;10:48:09;Charge to 10% ;15.02.2018;FEY;;LION;49;14500;7200;224;14;96;100;8400;;4152;4152;1;13016;26.74;28.44;32,0;BCS1388054;6;9
001067;13.12.2019;13:51:54;Stop          ;15.02.2018;FEY;;LION;49;14500;7200;192;14;58;60;8400;3000;3687;3734;1;13505;34.44;39.54;36,1;BCS1388054;6;9
001067;13.12.2019;13:53:13;Fastcharge    ;15.02.2018;FEY;;LION;49;14500;7200;192;14;58;60;8400;3000;3770;3768;1;13012;34.44;37.54;35,8;BCS1388054;6;9
001067;13.12.2019;13:53:19;Stop          ;15.02.2018;FEY;;LION;49;14500;7200;192;14;58;60;8400;3000;3771;3769;1;13003;34.44;37.34;35,8;BCS1388054;6;9
001067;13.12.2019;13:53:25;Normalcharge  ;15.02.2018;FEY;;LION;49;14500;7200;192;14;58;60;8400;3000;3771;3769;1;13013;34.44;37.24;35,8;BCS1388054;6;9
001067;13.12.2019;20:04:59;Stop          ;15.02.2018;FEY;;LION;49;14500;7200;224;14;96;100;8400;;4158;4158;1;13016;28.14;29.34;32,0;BCS1388054;6;9
001067;16.12.2019;07:43:27;Charge to 10% ;15.02.2018;FEY;;LION;49;14500;7200;224;14;96;100;8400;;4149;4149;1;13017;26.54;27.34;31,7;BCS1388054;6;9
001067;16.12.2019;14:43:10;Stop          ;15.02.2018;FEY;;LION;49;14500;7200;192;15;10;10;8400;3000;3355;3353;1;13017;32.04;31.54;31,7;BCS1388054;6;9
001067;16.12.2019;14:44:21;Charge to 90% ;15.02.2018;FEY;;LION;49;14500;7200;192;15;10;10;8400;3000;3355;3354;1;13017;31.94;31.14;31,9;BCS1388054;6;9
001067;16.12.2019;20:54:26;Stop          ;15.02.2018;FEY;;LION;49;14500;7200;192;15;86;90;8400;3000;4054;4056;1;13018;32.24;31.94;32,1;BCS1388054;6;9
001067;17.12.2019;08:37:57;Fastcharge    ;15.02.2018;FEY;;LION;49;14500;7200;192;15;86;90;8400;3000;4043;4044;1;13018;26.54;28.24;31,6;BCS1388054;6;9
001067;17.12.2019;13:38:40;Charge to 10% ;15.02.2018;FEY;;LION;49;14500;7200;224;15;96;100;8400;;4155;4155;1;13018;26.84;28.24;30,8;BCS1388054;6;9
001067;17.12.2019;20:41:41;Stop          ;15.02.2018;FEY;;LION;49;14500;7200;192;16;10;10;8400;3000;3353;3352;1;13016;34.04;33.44;32,6;BCS1388054;6;9
001067;18.12.2019;08:31:34;Fastcharge    ;15.02.2018;FEY;;LION;49;14500;7200;192;16;8;9;8400;3000;3364;3364;1;13018;26.64;28.24;31,6;BCS1388054;6;9
001067;18.12.2019;14:33:31;Stop          ;15.02.2018;FEY;;LION;49;14500;7200;224;16;95;100;8400;;4162;4162;1;13017;30.34;29.94;31,4;BCS1388054;6;9
001067;19.12.2019;08:24:06;Charge to 60% ;15.02.2018;FEY;;LION;49;14500;7200;224;16;96;100;8400;;4152;4152;1;13017;26.64;28.14;31,5;BCS1388054;6;9
001067;19.12.2019;11:34:24;Stop          ;15.02.2018;FEY;;LION;49;14500;7200;192;17;58;60;8400;3000;3777;3775;1;13016;33.64;33.34;33,5;BCS1388054;6;9
001067;19.12.2019;12:16:53;Cycle         ;15.02.2018;FEY;;LION;49;14500;7200;192;17;58;60;8400;3000;3782;3782;1;13017;30.64;30.24;32,7;BCS1388054;6;9
001067;20.12.2019;17:31:05;Stop          ;15.02.2018;FEY;;LION;49;14500;7200;224;18;95;100;8400;;4156;4156;1;13017;27.04;28.04;30,6;BCS1388054;6;9
001067;06.01.2020;06:34:58;Charge to 60% ;15.02.2018;FEY;;LION;49;14500;7200;192;18;94;98;8400;;4124;4123;1;13019;26.84;28.34;31,9;BCS1388054;6;9
001067;06.01.2020;09:30:42;Stop          ;15.02.2018;FEY;;LION;49;14500;7200;192;19;58;60;8400;3000;3765;3762;1;13017;33.04;35.24;33,7;BCS1388054;6;9
001067;06.01.2020;09:50:46;Fastcharge    ;15.02.2018;FEY;;LION;49;14500;7200;192;19;58;60;8400;3000;3779;3778;1;13017;31.64;30.84;32,7;BCS1388054;6;9
001067;06.01.2020;13:06:22;Stop          ;15.02.2018;FEY;;LION;49;14500;7200;224;19;96;100;8400;;4161;4161;1;13019;30.04;30.04;32,1;BCS1388054;6;9

File: 009520.txt
Serialnumber ; Date ; Time ; Action ; Date of Manufacture ; Manufacturer ; Battery Name ; Device-Chemistry ; Specification-Info ; Design-Capacity [mAh] ; Design-Voltage [mV] ; Battery Status ; Cycle Count ; SOC [%] ; Relativ SOC[%] ; Desired Voltage [mV]; Desired Current [mA]; Cell Voltage 1 [mV] ; Cell Voltage 2 [mV] ; Max_Error [%] ; Busvoltage[mV] ; Battery Temperature [°C] ; Charger Temperature [°C] ; Batterysystem ; Case ; PLace
009520;10.12.2019;15:28:47;Ladung auf 30% ;04.12.2018;FEY;;LION;49;14500;7200;224;45;93;99;8400;;4130;4130;1;13012;22.84;24.24;27,1;BCS1388054;3;5
009520;10.12.2019;20:47:21;Stop           ;04.12.2018;FEY;;LION;49;14500;7200;192;46;29;30;8400;3000;3559;3559;1;13010;33.54;32.54;33,5;BCS1388054;3;5
009520;11.12.2019;08:48:36;Fastcharge    ;04.12.2018;FEY;;LION;49;14500;7200;192;46;29;30;8400;3000;3568;3568;1;13009;26.44;27.34;31,9;BCS1388054;3;5
009520;11.12.2019;13:39:41;Stop           ;04.12.2018;FEY;;LION;49;14500;7200;224;46;95;100;8400;;4161;4161;1;13011;29.84;29.54;32,5;BCS1388054;3;5
009520;11.12.2019;15:46:24;Ladung auf 10% ;04.12.2018;FEY;;LION;49;14500;7200;224;46;96;99;8400;;4152;4153;1;13011;27.24;27.64;31,4;BCS1388054;3;5
009520;11.12.2019;22:48:44;Stop           ;04.12.2018;FEY;;LION;49;14500;7200;192;48;10;10;8400;3000;3351;3352;1;13009;34.24;32.84;33,6;BCS1388054;3;5
009520;12.12.2019;08:44:58;Normalcharge  ;04.12.2018;FEY;;LION;49;14500;7200;192;48;9;10;8400;3000;3362;3363;1;13010;26.64;27.54;31,9;BCS1388054;3;5
009520;12.12.2019;16:39:24;Stop           ;04.12.2018;FEY;;LION;49;14500;7200;224;48;96;100;8400;;4159;4159;1;13009;29.14;28.94;31,7;BCS1388054;3;5
009520;13.12.2019;10:47:57;Ladung auf 10% ;04.12.2018;FEY;;LION;49;14500;7200;224;48;95;100;8400;;4147;4147;1;13009;26.64;27.64;32,0;BCS1388054;3;5
009520;13.12.2019;15:42:18;Stop           ;04.12.2018;FEY;;LION;49;14500;7200;192;48;34;36;8400;3000;3500;3551;1;13549;32.94;35.64;34,6;BCS1388054;3;5
009520;13.12.2019;15:42:20;Cycle          ;04.12.2018;FEY;;LION;49;14500;7200;192;48;34;36;8400;3000;3500;3551;1;13549;32.94;35.64;34,6;BCS1388054;3;5
009520;14.12.2019;22:36:33;Stop           ;04.12.2018;FEY;;LION;49;14500;7200;224;50;93;100;8400;;4150;4149;1;13010;26.74;27.44;31,6;BCS1388054;3;5
009520;16.12.2019;07:43:10;Ladung auf 10% ;04.12.2018;FEY;;LION;49;14500;7200;224;50;94;100;8400;;4144;4143;1;13011;26.44;26.94;31,9;BCS1388054;3;5
009520;16.12.2019;14:34:27;Stop           ;04.12.2018;FEY;;LION;49;14500;7200;192;51;10;10;8400;3000;3362;3363;1;13010;32.84;31.54;32,5;BCS1388054;3;5
009520;16.12.2019;14:44:07;Ladung auf 90% ;04.12.2018;FEY;;LION;49;14500;7200;192;51;10;10;8400;3000;3366;3366;1;13011;32.14;30.34;31,7;BCS1388054;3;5
009520;16.12.2019;20:48:39;Stop           ;04.12.2018;FEY;;LION;49;14500;7200;192;51;84;90;8400;3000;4060;4060;1;13011;31.74;30.54;31,9;BCS1388054;3;5
009520;17.12.2019;08:37:44;Fastcharge    ;04.12.2018;FEY;;LION;49;14500;7200;192;51;84;90;8400;3000;4047;4048;1;13010;26.44;27.34;31,5;BCS1388054;3;5
009520;17.12.2019;10:30:44;Stop           ;04.12.2018;FEY;;LION;49;14500;7200;224;51;95;100;8400;;4158;4159;1;13011;28.04;28.34;31,4;BCS1388054;3;5
009520;17.12.2019;13:38:28;Ladung auf 10% ;04.12.2018;FEY;;LION;49;14500;7200;224;51;95;100;8400;;4148;4149;1;13010;26.84;27.44;30,8;BCS1388054;3;5
009520;17.12.2019;20:32:04;Stop           ;04.12.2018;FEY;;LION;49;14500;7200;192;52;10;10;8400;3000;3363;3365;1;13009;34.24;32.94;34,6;BCS1388054;3;5
009520;18.12.2019;08:31:22;Fastcharge    ;04.12.2018;FEY;;LION;49;14500;7200;192;52;10;11;8400;3000;3373;3375;1;13011;26.64;27.34;31,6;BCS1388054;3;5
009520;18.12.2019;14:26:33;Stop           ;04.12.2018;FEY;;LION;49;14500;7200;224;52;95;100;8400;;4160;4161;1;13011;29.94;29.54;32,5;BCS1388054;3;5
009520;19.12.2019;08:23:54;Ladung auf 60% ;04.12.2018;FEY;;LION;49;14500;7200;224;52;96;100;8400;;4148;4149;1;13010;26.54;27.34;31,6;BCS1388054;3;5
009520;19.12.2019;11:28:29;Stop           ;04.12.2018;FEY;;LION;49;14500;7200;192;52;58;60;8400;3000;3761;3763;1;13008;34.14;34.04;35,1;BCS1388054;3;5
009520;19.12.2019;12:16:41;Cycle          ;04.12.2018;FEY;;LION;49;14500;7200;192;52;58;60;8400;3000;3778;3780;1;13010;30.54;29.64;32,7;BCS1388054;3;5
009520;20.12.2019;17:23:28;Stop           ;04.12.2018;FEY;;LION;49;14500;7200;224;54;94;100;8400;;4151;4153;1;13010;26.84;27.54;31,9;BCS1388054;3;5
009520;06.01.2020;06:34:46;Ladung auf 60% ;04.12.2018;FEY;;LION;49;14500;7200;192;54;92;98;8400;;4121;4122;1;13012;26.64;27.34;31,9;BCS1388054;3;5
009520;06.01.2020;09:29:20;Stop           ;04.12.2018;FEY;;LION;49;14500;7200;192;54;57;60;8400;3000;3771;3774;1;13011;33.34;32.74;34,2;BCS1388054;3;5
009520;06.01.2020;09:50:34;Fastcharge    ;04.12.2018;FEY;;LION;49;14500;7200;192;54;57;60;8400;3000;3781;3784;1;13010;31.74;30.34;32,7;BCS1388054;3;5
009520;06.01.2020;13:06:26;Stop           ;04.12.2018;FEY;;LION;49;14500;7200;224;54;95;100;8400;;4160;4160;1;13011;29.54;29.04;32,1;BCS1388054;3;5