Folder: Battery_sort_V2/V2/reader/Batterieverzeichnis_new

Note: V2/reader/Batterieverzeichnis_new/009581.txt
Serialnumber ; Date ; Time ; Action ; Date of Manufacture ; Manufacturer ; Battery Name ; Device-Chemistry ; Specification-Info ; Design-Capacity [mAh] ; Design-Voltage [mV] ; Battery Status ; Cycle Count ; SOC [%] ; Relativ SOC[%] ; Desired Voltage [mV]; Desired Current [mA]; Cell Voltage 1 [mV] ; Cell Voltage 2 [mV] ; Max_Error [%] ; Busvoltage[mV] ; Battery Temperature [°C] ; Charger Temperature [°C] ; Batterysystem ; Case ; PLace
009581;07.02.2021;08:46:49;Normalcharge  ;04.12.2018;FEY;;LION;49;14500;7200;192;2;91;96;8400;;4107;4108;1;12998;23.74;24.84;29,2;BCS1388054;2;11
009581;07.02.2021;11:52:12;Stop          ;04.12.2018;FEY;;LION;49;14500;7200;192;2;91;96;8400;;4107;4108;1;12999;25.84;26.04;29,7;BCS1388054;2;11
009581;03.03.2021;08:17:17;Normalcharge  ;04.12.2018;FEY;;LION;49;14500;7200;192;2;91;96;8400;;4100;4101;1;13012;23.24;23.24;23,5;BCS1388054;2;1
009581;04.03.2021;07:53:45;Stop          ;04.12.2018;FEY;;LION;49;14500;7200;192;2;91;96;8400;;4099;4100;1;13003;26.44;28.14;31,6;BCS1388054;2;1

Note: V2/reader/Batterieverzeichnis_new/009588.txt
009588;29.11.2020;04:33:37;Cycle          ;03.12.2018;FEY;;LION;49;14500;7200;16576;1;98;99;;;4159;4158;1;12997;22.54;22.74;27,4;BCS1388054;3;8
009588;12.01.2021;04:17:22;Charge to 90% ;03.12.2018;FEY;;LION;49;14500;7200;16576;1;97;97;;;4136;4135;1;13013;22.64;23.44;23,5;BCS1388054;2;16
009588;12.01.2021;04:54:21;Stop          ;03.12.2018;FEY;;LION;49;14500;7200;192;1;90;90;8400;3000;4060;4059;1;13003;26.04;30.34;31,9;BCS1388054;2;16
009588;12.01.2021;05:21:40;Cycle         ;03.12.2018;FEY;;LION;49;14500;7200;192;1;90;90;8400;3000;4068;4067;1;13004;26.44;28.14;30,6;BCS1388054;2;16
009588;13.01.2021;08:20:19;Stop          ;03.12.2018;FEY;;LION;49;14500;7200;224;2;99;100;8400;;4156;4157;1;13006;26.64;27.94;30,8;BCS1388054;2;16
009588;22.02.2021;17:31:59;Normalcharge  ;03.12.2018;FEY;;LION;49;14500;7200;192;3;63;64;8400;3000;3800;3800;1;13002;25.84;26.74;31,6;BCS1388054;2;4
009588;22.02.2021;21:53:27;Stop          ;03.12.2018;FEY;;LION;49;14500;7200;224;3;98;100;8400;;4157;4159;1;13004;26.34;28.44;31,7;BCS1388054;2;4

Note: V2/reader/Batterieverzeichnis_new/009589.txt
Serialnumber ; Date ; Time ; Action ; Date of Manufacture ; Manufacturer ; Battery Name ; Device-Chemistry ; Specification-Info ; Design-Capacity [mAh] ; Design-Voltage [mV] ; Battery Status ; Cycle Count ; SOC [%] ; Relativ SOC[%] ; Desired Voltage [mV]; Desired Current [mA]; Cell Voltage 1 [mV] ; Cell Voltage 2 [mV] ; Max_Error [%] ; Busvoltage[mV] ; Battery Temperature [°C] ; Charger Temperature [°C] ; Batterysystem ; Case ; PLace
009589;07.12.2020;04:14:21;Cycle         ;03.12.2018;FEY;;LION;49;14500;7200;224;4;98;99;8400;;4143;4142;1;12988;25.84;28.04;30,3;BCS1388054;2;15
009589;08.12.2020;16:19:44;Stop          ;03.12.2018;FEY;;LION;49;14500;7200;224;5;98;100;8400;;4152;4152;1;12988;28.04;29.64;31,9;BCS1388054;2;15
009589;03.03.2021;08:17:40;Normalcharge  ;03.12.2018;FEY;;LION;49;14500;7200;192;5;70;71;8400;3000;3863;3862;1;13002;23.34;23.24;23,6;BCS1388054;6;7
009589;03.03.2021;11:56:52;Stop          ;03.12.2018;FEY;;LION;49;14500;7200;224;5;98;100;8400;;4157;4157;1;12994;28.84;29.24;31,7;BCS1388054;6;7

Note: V2/reader/Batterieverzeichnis_new/009615.txt
Serialnumber ; Date ; Time ; Action ; Date of Manufacture ; Manufacturer ; Battery Name ; Device-Chemistry ; Specification-Info ; Design-Capacity [mAh] ; Design-Voltage [mV] ; Battery Status ; Cycle Count ; SOC [%] ; Relativ SOC[%] ; Desired Voltage [mV]; Desired Current [mA]; Cell Voltage 1 [mV] ; Cell Voltage 2 [mV] ; Max_Error [%] ; Busvoltage[mV] ; Battery Temperature [°C] ; Charger Temperature [°C] ; Batterysystem ; Case ; PLace
009615;07.12.2020;04:14:40;Cycle         ;04.12.2018;FEY;;LION;49;14500;7200;192;2;89;91;8400;3000;4056;4054;1;13019;25.54;27.54;30,3;BCS1388054;7;17
009615;08.12.2020;16:20:20;Stop          ;04.12.2018;FEY;;LION;49;14500;7200;224;3;97;100;8400;;4153;4153;1;13018;27.34;28.94;31,9;BCS1388054;7;17
009615;21.02.2021;13:43:19;Normalcharge  ;04.12.2018;FEY;;LION;49;14500;7200;192;3;90;93;8400;3000;4072;4072;1;12991;23.54;25.54;27,5;BCS1388054;1;9
009615;22.02.2021;17:08:49;Stop          ;04.12.2018;FEY;;LION;49;14500;7200;224;3;97;100;8400;;4146;4147;1;12990;26.14;27.34;30,0;BCS1388054;1;9

Note: V2/reader/Batterieverzeichnis_new/009741.txt
009741;29.11.2020;04:33:37;Cycle          ;04.12.2018;FEY;;LION;49;14500;7200;224;3;98;99;8400;;4156;4158;1;13007;22.84;24.34;27,4;BCS1388054;3;4
009741;07.02.2021;08:46:43;Normalcharge  ;04.12.2018;FEY;;LION;49;14500;7200;192;4;94;97;8400;;4101;4100;1;12997;23.44;27.34;29,2;BCS1388054;1;15
009741;07.02.2021;11:52:07;Stop          ;04.12.2018;FEY;;LION;49;14500;7200;192;4;94;97;8400;;4101;4100;1;12996;25.64;28.74;29,7;BCS1388054;1;15
009741;21.02.2021;13:45:29;Normalcharge  ;04.12.2018;FEY;;LION;49;14500;7200;192;4;90;93;8400;3000;4066;4066;1;13002;23.14;24.04;27,8;BCS1388054;6;2
009741;22.02.2021;17:20:47;Stop          ;04.12.2018;FEY;;LION;49;14500;7200;224;4;97;100;8400;;4146;4144;1;12997;26.24;29.34;30,7;BCS1388054;6;2

Note: V2/reader/Batterieverzeichnis_new/009773.txt
Serialnumber ; Date ; Time ; Action ; Date of Manufacture ; Manufacturer ; Battery Name ; Device-Chemistry ; Specification-Info ; Design-Capacity [mAh] ; Design-Voltage [mV] ; Battery Status ; Cycle Count ; SOC [%] ; Relativ SOC[%] ; Desired Voltage [mV]; Desired Current [mA]; Cell Voltage 1 [mV] ; Cell Voltage 2 [mV] ; Max_Error [%] ; Busvoltage[mV] ; Battery Temperature [°C] ; Charger Temperature [°C] ; Batterysystem ; Case ; PLace
009773;12.01.2021;04:16:00;Charge to 90% ;04.12.2018;FEY;;LION;49;14500;7200;16576;1;88;97;;;4134;4134;1;13005;23.04;21.64;23,0;BCS1388054;1;10
009773;12.01.2021;04:16:03;Stop          ;04.12.2018;FEY;;LION;49;14500;7200;16576;1;88;97;;;4134;4134;1;13006;23.04;22.34;23,0;BCS1388054;1;10
009773;12.01.2021;04:17:15;Charge to 90% ;04.12.2018;FEY;;LION;49;14500;7200;16576;1;88;97;;;4135;4134;1;13005;23.04;22.84;23,5;BCS1388054;1;10
009773;12.01.2021;04:55:18;Stop          ;04.12.2018;FEY;;LION;49;14500;7200;192;2;83;90;8400;3000;4068;4067;1;12998;26.54;28.64;31,7;BCS1388054;1;10
009773;12.01.2021;05:21:33;Cycle         ;04.12.2018;FEY;;LION;49;14500;7200;192;2;83;90;8400;3000;4073;4072;1;12999;26.64;26.74;30,6;BCS1388054;1;10
009773;13.01.2021;08:18:34;Stop          ;04.12.2018;FEY;;LION;49;14500;7200;224;3;95;100;8400;;4155;4155;1;12998;26.54;26.64;30,7;BCS1388054;1;10
009773;21.02.2021;13:45:29;Normalcharge  ;04.12.2018;FEY;;LION;49;14500;7200;192;3;51;54;8400;3000;3686;3687;1;12995;22.74;23.94;27,8;BCS1388054;6;13

Note: V2/reader/Batterieverzeichnis_new/009813.txt
Serialnumber ; Date ; Time ; Action ; Date of Manufacture ; Manufacturer ; Battery Name ; Device-Chemistry ; Specification-Info ; Design-Capacity [mAh] ; Design-Voltage [mV] ; Battery Status ; Cycle Count ; SOC [%] ; Relativ SOC[%] ; Desired Voltage [mV]; Desired Current [mA]; Cell Voltage 1 [mV] ; Cell Voltage 2 [mV] ; Max_Error [%] ; Busvoltage[mV] ; Battery Temperature [°C] ; Charger Temperature [°C] ; Batterysystem ; Case ; PLace
009813;07.02.2021;08:46:53;Normalcharge  ;03.12.2018;FEY;;LION;49;14500;7200;192;4;95;96;8400;;4118;4117;1;13005;23.34;24.94;29,2;BCS1388054;3;4
009813;07.02.2021;11:52:16;Stop           ;03.12.2018;FEY;;LION;49;14500;7200;192;4;95;96;8400;;4118;4116;1;13005;25.64;26.24;29,7;BCS1388054;3;4
009813;03.03.2021;08:17:40;Normalcharge  ;03.12.2018;FEY;;LION;49;14500;7200;192;4;72;73;8400;3000;3881;3881;1;13008;22.94;23.14;23,6;BCS1388054;6;1
009813;03.03.2021;11:56:52;Stop          ;03.12.2018;FEY;;LION;49;14500;7200;224;4;99;100;8400;;4156;4155;1;13003;27.54;29.14;31,7;BCS1388054;6;1

File: 001098.txt
Serialnumber ; Date ; Time ; Action ; Date of Manufacture ; Manufacturer ; Battery Name ; Device-Chemistry ; Specification-Info ; Design-Capacity [mAh] ; Design-Voltage [mV] ; Battery Status ; Cycle Count ; SOC [%] ; Relativ SOC[%] ; Desired Voltage [mV]; Desired Current [mA]; Cell Voltage 1 [mV] ; Cell Voltage 2 [mV] ; Max_Error [%] ; Busvoltage[mV] ; Battery Temperature [°C] ; Charger Temperature [°C] ; Batterysystem ; Case ; PLace
001098;10.12.2019;15:29:15;Charge to 30% ;15.02.2018;FEY;;LION;49;14500;7200;224;23;94;99;8400;;4123;4123;1;13027;22.74;25.04;27,1;BCS1388054;7;17
001098;10.12.2019;20:46:56;Stop          ;15.02.2018;FEY;;LION;49;14500;7200;192;24;29;30;8400;3000;3556;3554;1;13024;32.94;33.24;33,5;BCS1388054;7;17
001098;11.12.2019;08:49:12;Fastcharge    ;15.02.2018;FEY;;LION;49;14500;7200;192;24;29;30;8400;3000;3566;3565;1;13025;26.14;27.74;31,9;BCS1388054;7;17
001098;11.12.2019;13:38:42;Stop          ;15.02.2018;FEY;;LION;49;14500;7200;224;24;95;100;8400;;4163;4163;1;13026;29.64;30.14;32,7;BCS1388054;7;17
001098;11.12.2019;15:46:56;Charge to 10% ;15.02.2018;FEY;;LION;49;14500;7200;224;24;97;100;8400;;4155;4156;1;13024;26.94;28.04;31,2;BCS1388054;7;17
001098;11.12.2019;22:51:50;Stop          ;15.02.2018;FEY;;LION;49;14500;7200;192;25;10;10;8400;3000;3352;3352;1;13024;33.64;32.54;33,0;BCS1388054;7;17
001098;12.12.2019;08:45:27;Normalcharge  ;15.02.2018;FEY;;LION;49;14500;7200;192;25;9;10;8400;3000;3361;3362;1;13025;26.34;27.94;31,7;BCS1388054;7;17
001098;12.12.2019;16:41:08;Stop          ;15.02.2018;FEY;;LION;49;14500;7200;224;25;96;100;8400;;4161;4161;1;13025;28.84;29.24;31,6;BCS1388054;7;17
001098;13.12.2019;10:48:13;Charge to 10% ;15.02.2018;FEY;;LION;49;14500;7200;224;25;96;100;8400;;4150;4150;1;13025;26.34;28.04;32,0;BCS1388054;7;17
001098;13.12.2019;13:48:48;Stop          ;15.02.2018;FEY;;LION;49;14500;7200;192;26;59;61;8400;3000;3687;3736;1;13540;34.04;41.04;36,8;BCS1388054;7;17
001098;16.12.2019;07:43:34;Charge to 10% ;15.02.2018;FEY;;LION;49;14500;7200;192;26;61;63;8400;3000;3788;3788;1;13024;23.04;26.74;31,7;BCS1388054;7;17
001098;16.12.2019;11:52:34;Stop          ;15.02.2018;FEY;;LION;49;14500;7200;192;26;10;10;8400;3000;3340;3340;1;13024;33.04;32.64;34,7;BCS1388054;7;17
001098;16.12.2019;14:44:25;Charge to 90% ;15.02.2018;FEY;;LION;49;14500;7200;192;26;10;10;8400;3000;3349;3349;1;13024;28.74;29.54;31,7;BCS1388054;7;17
001098;16.12.2019;20:53:59;Stop          ;15.02.2018;FEY;;LION;49;14500;7200;192;26;85;90;8400;3000;4030;4032;1;13024;31.44;31.04;32,1;BCS1388054;7;17
001098;17.12.2019;08:38:02;Fastcharge    ;15.02.2018;FEY;;LION;49;14500;7200;192;26;85;90;8400;3000;4021;4022;1;13024;26.24;27.84;31,6;BCS1388054;7;17
001098;17.12.2019;10:36:25;Stop          ;15.02.2018;FEY;;LION;49;14500;7200;224;26;95;100;8400;;4162;4163;1;13024;27.94;29.04;31,5;BCS1388054;7;17
001098;17.12.2019;13:38:44;Charge to 10% ;15.02.2018;FEY;;LION;49;14500;7200;224;26;95;100;8400;;4153;4154;1;13025;26.54;27.84;30,8;BCS1388054;7;17
001098;17.12.2019;20:42:03;Stop          ;15.02.2018;FEY;;LION;49;14500;7200;192;27;10;10;8400;3000;3351;3351;1;13023;33.64;32.34;32,6;BCS1388054;7;17
001098;18.12.2019;08:31:43;Fastcharge    ;15.02.2018;FEY;;LION;49;14500;7200;192;27;9;9;8400;3000;3362;3362;1;13024;26.34;27.94;31,6;BCS1388054;7;17
001098;18.12.2019;14:30:48;Stop          ;15.02.2018;FEY;;LION;49;14500;7200;224;27;94;100;8400;;4163;4162;1;13025;29.74;29.74;31,6;BCS1388054;7;17
001098;19.12.2019;08:24:17;Charge to 60% ;15.02.2018;FEY;;LION;49;14500;7200;224;27;95;100;8400;;4151;4150;1;13025;26.34;27.84;31,6;BCS1388054;7;17
001098;19.12.2019;11:28:26;Stop          ;15.02.2018;FEY;;LION;49;14500;7200;192;28;58;60;8400;3000;3760;3757;1;13023;33.64;36.54;35,1;BCS1388054;7;17
001098;19.12.2019;12:16:57;Cycle         ;15.02.2018;FEY;;LION;49;14500;7200;192;28;58;60;8400;3000;3779;3777;1;13024;30.04;29.84;32,7;BCS1388054;7;17
001098;20.12.2019;17:22:28;Stop          ;15.02.2018;FEY;;LION;49;14500;7200;224;29;94;100;8400;;4154;4155;1;13025;26.64;28.14;31,9;BCS1388054;7;17
001098;06.01.2020;06:35:02;Charge to 60% ;15.02.2018;FEY;;LION;49;14500;7200;192;29;93;98;8400;;4124;4124;1;13027;26.44;27.94;31,9;BCS1388054;7;17
001098;06.01.2020;09:29:52;Stop          ;15.02.2018;FEY;;LION;49;14500;7200;192;30;57;60;8400;3000;3762;3761;1;13023;32.74;35.04;34,0;BCS1388054;7;17
001098;06.01.2020;09:50:50;Fastcharge    ;15.02.2018;FEY;;LION;49;14500;7200;192;30;57;60;8400;3000;3775;3775;1;13026;31.04;30.34;32,7;BCS1388054;7;17
001098;06.01.2020;13:05:11;Stop          ;15.02.2018;FEY;;LION;49;14500;7200;224;30;95;100;8400;;4162;4163;1;13025;29.24;29.94;32,4;BCS1388054;7;17

File: 009523.txt
Serialnumber ; Date ; Time ; Action ; Date of Manufacture ; Manufacturer ; Battery Name ; Device-Chemistry ; Specification-Info ; Design-Capacity [mAh] ; Design-Voltage [mV] ; Battery Status ; Cycle Count ; SOC [%] ; Relativ SOC[%] ; Desired Voltage [mV]; Desired Current [mA]; Cell Voltage 1 [mV] ; Cell Voltage 2 [mV] ; Max_Error [%] ; Busvoltage[mV] ; Battery Temperature [°C] ; Charger Temperature [°C] ; Batterysystem ; Case ; PLace
009523;10.12.2019;15:28:33;Charge to 30% ;03.12.2018;FEY;;LION;49;14500;7200;192;43;91;98;8400;;4110;4108;1;12999;23.34;25.64;27,1;BCS1388054;1;1
009523;10.12.2019;20:42:16;Stop          ;03.12.2018;FEY;;LION;49;14500;7200;192;44;29;30;8400;3000;3562;3561;1;12999;31.94;33.24;34,1;BCS1388054;1;1
009523;11.12.2019;08:48:18;Fastcharge    ;03.12.2018;FEY;;LION;49;14500;7200;192;44;29;30;8400;3000;3569;3568;1;12999;25.94;28.14;31,9;BCS1388054;1;1
009523;11.12.2019;13:40:21;Stop          ;03.12.2018;FEY;;LION;49;14500;7200;224;44;94;100;8400;;4162;4162;1;12999;28.94;29.94;32,4;BCS1388054;1;1
009523;11.12.2019;15:45:57;Charge to 30% ;03.12.2018;FEY;;LION;49;14500;7200;224;44;95;100;8400;;4154;4154;1;12999;26.64;28.34;31,5;BCS1388054;1;1
009523;11.12.2019;15:46:00;Stop          ;03.12.2018;FEY;;LION;49;14500;7200;224;44;95;100;8400;;4154;4154;1;12998;26.64;28.34;31,5;BCS1388054;1;1
009523;11.12.2019;15:46:13;Charge to 10% ;03.12.2018;FEY;;LION;49;14500;7200;224;44;95;100;8400;;4154;4154;1;12999;26.64;28.34;31,5;BCS1388054;1;1
009523;11.12.2019;22:50:20;Stop          ;03.12.2018;FEY;;LION;49;14500;7200;192;45;10;10;8400;3000;3354;3354;1;13000;32.44;32.74;33,4;BCS1388054;1;1
009523;12.12.2019;08:44:40;Normalcharge  ;03.12.2018;FEY;;LION;49;14500;7200;192;45;9;10;8400;3000;3363;3363;1;12997;26.24;28.34;31,9;BCS1388054;1;1
009523;12.12.2019;16:39:22;Stop          ;03.12.2018;FEY;;LION;49;14500;7200;224;45;95;100;8400;;4160;4161;1;12999;28.34;29.54;31,7;BCS1388054;1;1
009523;13.12.2019;10:47:47;Charge to 10% ;03.12.2018;FEY;;LION;49;14500;7200;224;45;95;100;8400;;4149;4149;1;12999;26.14;28.34;32,0;BCS1388054;1;1
009523;13.12.2019;15:41:58;Stop          ;03.12.2018;FEY;;LION;49;14500;7200;192;46;34;36;8400;3000;3499;3549;1;13619;31.94;37.34;34,6;BCS1388054;1;1
009523;13.12.2019;15:42:01;Cycle         ;03.12.2018;FEY;;LION;49;14500;7200;192;46;34;36;8400;3000;3499;3549;1;12999;31.94;37.34;34,6;BCS1388054;1;1
009523;14.12.2019;22:41:25;Stop          ;03.12.2018;FEY;;LION;49;14500;7200;224;47;93;99;8400;;4152;4151;1;12999;26.24;28.24;31,9;BCS1388054;1;1
009523;16.12.2019;07:43:03;Charge to 10% ;03.12.2018;FEY;;LION;49;14500;7200;224;47;93;100;8400;;4146;4145;1;12999;25.94;27.84;31,9;BCS1388054;1;1
009523;16.12.2019;14:36:13;Stop          ;03.12.2018;FEY;;LION;49;14500;7200;192;48;10;10;8400;3000;3367;3366;1;12999;31.54;31.84;32,4;BCS1388054;1;1
009523;16.12.2019;14:44:00;Charge to 90% ;03.12.2018;FEY;;LION;49;14500;7200;192;48;10;10;8400;3000;3368;3368;1;12999;31.04;30.74;31,7;BCS1388054;1;1
009523;16.12.2019;20:50:03;Stop          ;03.12.2018;FEY;;LION;49;14500;7200;192;48;84;90;8400;3000;4053;4054;1;13000;30.54;30.94;31,7;BCS1388054;1;1
009523;17.12.2019;08:37:36;Fastcharge    ;03.12.2018;FEY;;LION;49;14500;7200;192;48;84;90;8400;3000;4045;4045;1;12998;26.04;28.04;31,6;BCS1388054;1;1
009523;17.12.2019;10:31:11;Stop          ;03.12.2018;FEY;;LION;49;14500;7200;224;48;94;100;8400;;4161;4162;1;12999;27.34;28.94;31,4;BCS1388054;1;1
009523;17.12.2019;13:38:19;Charge to 10% ;03.12.2018;FEY;;LION;49;14500;7200;224;48;94;100;8400;;4151;4151;1;12998;26.24;27.84;30,8;BCS1388054;1;1
009523;17.12.2019;20:33:50;Stop          ;03.12.2018;FEY;;LION;49;14500;7200;192;50;10;10;8400;3000;3364;3364;1;12999;32.54;33.04;34,2;BCS1388054;1;1
009523;18.12.2019;08:31:14;Fastcharge    ;03.12.2018;FEY;;LION;49;14500;7200;192;50;10;10;8400;3000;3373;3373;1;12999;26.14;28.14;31,6;BCS1388054;1;1
009523;18.12.2019;14:28:33;Stop          ;03.12.2018;FEY;;LION;49;14500;7200;224;50;94;100;8400;;4160;4161;1;12999;28.94;29.84;31,9;BCS1388054;1;1
009523;19.12.2019;08:23:45;Charge to 60% ;03.12.2018;FEY;;LION;49;14500;7200;224;50;95;100;8400;;4149;4150;1;12999;26.04;28.04;31,5;BCS1388054;1;1
009523;19.12.2019;11:29:32;Stop          ;03.12.2018;FEY;;LION;49;14500;7200;192;50;57;60;8400;3000;3764;3766;1;13000;32.54;33.84;34,9;BCS1388054;1;1
009523;19.12.2019;12:16:33;Cycle         ;03.12.2018;FEY;;LION;49;14500;7200;192;50;57;60;8400;3000;3775;3777;1;13000;29.24;29.94;32,7;BCS1388054;1;1
009523;20.12.2019;17:26:19;Stop          ;03.12.2018;FEY;;LION;49;14500;7200;224;51;93;100;8400;;4152;4153;1;12999;26.24;27.94;31,2;BCS1388054;1;1
009523;06.01.2020;06:34:38;Charge to 60% ;03.12.2018;FEY;;LION;49;14500;7200;224;51;92;99;8400;;4122;4123;1;12999;26.04;28.04;31,9;BCS1388054;1;1
009523;06.01.2020;09:30:29;Stop          ;03.12.2018;FEY;;LION;49;14500;7200;192;52;56;60;8400;3000;3765;3767;1;13001;31.74;32.84;33,9;BCS1388054;1;1
009523;06.01.2020;09:50:27;Fastcharge    ;03.12.2018;FEY;;LION;49;14500;7200;192;52;56;60;8400;3000;3773;3775;1;13001;30.34;30.44;32,6;BCS1388054;1;1
009523;06.01.2020;13:07:36;Stop          ;03.12.2018;FEY;;LION;49;14500;7200;224;52;94;100;8400;;4161;4162;1;13000;28.44;29.64;31,7;BCS1388054;1;1

File: 009563.txt
Serialnumber ; Date ; Time ; Action ; Date of Manufacture ; Manufacturer ; Battery Name ; Device-Chemistry ; Specification-Info ; Design-Capacity [mAh] ; Design-Voltage [mV] ; Battery Status ; Cycle Count ; SOC [%] ; Relativ SOC[%] ; Desired Voltage [mV]; Desired Current [mA]; Cell Voltage 1 [mV] ; Cell Voltage 2 [mV] ; Max_Error [%] ; Busvoltage[mV] ; Battery Temperature [°C] ; Charger Temperature [°C] ; Batterysystem ; Case ; PLace
009563;10.12.2019;15:29:09;Charge to 30% ;04.12.2018;FEY;;LION;49;14500;7200;224;28;93;100;8400;;4121;4123;1;13023;22.74;25.54;27,1;BCS1388054;6;3
009563;10.12.2019;20:46:41;Stop          ;04.12.2018;FEY;;LION;49;14500;7200;192;29;28;30;8400;3000;3548;3550;1;13020;32.94;35.34;33,6;BCS1388054;6;3
009563;11.12.2019;08:49:03;Fastcharge    ;04.12.2018;FEY;;LION;49;14500;7200;192;29;28;30;8400;3000;3563;3565;1;13022;26.44;28.64;31,9;BCS1388054;6;3
009563;11.12.2019;13:39:30;Stop          ;04.12.2018;FEY;;LION;49;14500;7200;224;29;94;100;8400;;4165;4166;1;13022;29.94;31.14;32,5;BCS1388054;6;3
009563;11.12.2019;15:46:47;Charge to 10% ;04.12.2018;FEY;;LION;49;14500;7200;224;29;96;100;8400;;4156;4157;1;13023;27.24;28.84;31,4;BCS1388054;6;3
009563;11.12.2019;22:52:10;Stop          ;04.12.2018;FEY;;LION;49;14500;7200;192;30;10;10;8400;3000;3351;3353;1;13022;33.54;33.44;33,0;BCS1388054;6;3
009563;12.12.2019;08:45:18;Normalcharge  ;04.12.2018;FEY;;LION;49;14500;7200;192;30;9;10;8400;3000;3361;3362;1;13022;26.64;28.84;31,7;BCS1388054;6;3
009563;12.12.2019;16:41:29;Stop          ;04.12.2018;FEY;;LION;49;14500;7200;224;30;96;100;8400;;4164;4166;1;13021;29.14;30.24;31,5;BCS1388054;6;3
009563;13.12.2019;10:48:09;Charge to 10% ;04.12.2018;FEY;;LION;49;14500;7200;224;30;96;100;8400;;4152;4153;1;13022;26.64;28.94;32,0;BCS1388054;6;3
009563;13.12.2019;13:51:54;Stop          ;04.12.2018;FEY;;LION;49;14500;7200;192;31;58;61;8400;3000;3679;3734;1;13500;34.14;40.44;36,1;BCS1388054;6;3
009563;13.12.2019;13:53:13;Fastcharge    ;04.12.2018;FEY;;LION;49;14500;7200;192;31;58;61;8400;3000;3765;3768;1;13019;34.04;37.94;35,8;BCS1388054;6;3
009563;13.12.2019;13:53:19;Stop          ;04.12.2018;FEY;;LION;49;14500;7200;192;31;58;61;8400;3000;3766;3769;1;13010;34.04;37.54;35,8;BCS1388054;6;3
009563;13.12.2019;13:53:25;Normalcharge  ;04.12.2018;FEY;;LION;49;14500;7200;192;31;58;61;8400;3000;3766;3769;1;13019;34.04;37.44;35,8;BCS1388054;6;3
009563;13.12.2019;20:04:59;Stop          ;04.12.2018;FEY;;LION;49;14500;7200;224;31;96;100;8400;;4155;4156;1;13022;27.94;29.74;32,0;BCS1388054;6;3
009563;16.12.2019;07:43:27;Charge to 10% ;04.12.2018;FEY;;LION;49;14500;7200;224;31;96;100;8400;;4147;4147;1;13024;26.44;27.74;31,7;BCS1388054;6;3
009563;16.12.2019;14:43:10;Stop          ;04.12.2018;FEY;;LION;49;14500;7200;192;32;10;10;8400;3000;3345;3347;1;13022;31.64;32.54;31,7;BCS1388054;6;3
009563;16.12.2019;14:44:21;Charge to 90% ;04.12.2018;FEY;;LION;49;14500;7200;192;32;10;10;8400;3000;3347;3349;1;13022;31.64;31.64;31,9;BCS1388054;6;3
009563;16.12.2019;20:54:26;Stop          ;04.12.2018;FEY;;LION;49;14500;7200;192;32;85;90;8400;3000;4042;4043;1;13022;31.54;31.84;32,1;BCS1388054;6;3
009563;17.12.2019;08:37:57;Fastcharge    ;04.12.2018;FEY;;LION;49;14500;7200;192;32;85;90;8400;3000;4033;4034;1;13023;26.54;28.74;31,6;BCS1388054;6;3
009563;17.12.2019;13:38:40;Charge to 10% ;04.12.2018;FEY;;LION;49;14500;7200;224;32;96;100;8400;;4153;4152;1;13023;26.84;28.64;30,8;BCS1388054;6;3
009563;17.12.2019;20:41:40;Stop          ;04.12.2018;FEY;;LION;49;14500;7200;192;33;10;10;8400;3000;3345;3346;1;13022;33.54;34.04;32,6;BCS1388054;6;3
009563;18.12.2019;08:31:34;Fastcharge    ;04.12.2018;FEY;;LION;49;14500;7200;192;33;9;9;8400;3000;3359;3360;1;13023;26.64;28.64;31,6;BCS1388054;6;3
009563;18.12.2019;14:33:31;Stop          ;04.12.2018;FEY;;LION;49;14500;7200;224;33;95;100;8400;;4162;4161;1;13022;29.74;30.24;31,4;BCS1388054;6;3
009563;19.12.2019;08:24:06;Charge to 60% ;04.12.2018;FEY;;LION;49;14500;7200;224;33;96;100;8400;;4151;4149;1;13023;26.54;28.74;31,5;BCS1388054;6;3
009563;19.12.2019;11:34:24;Stop          ;04.12.2018;FEY;;LION;49;14500;7200;192;34;58;60;8400;3000;3738;3739;1;13022;33.44;37.24;33,5;BCS1388054;6;3
009563;19.12.2019;12:16:53;Cycle         ;04.12.2018;FEY;;LION;49;14500;7200;192;34;58;61;8400;3000;3760;3761;1;13023;30.34;30.64;32,7;BCS1388054;6;3
009563;20.12.2019;17:31:05;Stop          ;04.12.2018;FEY;;LION;49;14500;7200;224;35;93;100;8400;;4155;4155;1;13024;26.84;28.54;30,6;BCS1388054;6;3
009563;06.01.2020;06:34:58;Charge to 60% ;04.12.2018;FEY;;LION;49;14500;7200;192;35;91;98;8400;;4124;4124;1;13024;26.74;28.84;31,9;BCS1388054;6;3
009563;06.01.2020;09:30:42;Stop          ;04.12.2018;FEY;;LION;49;14500;7200;192;36;57;60;8400;3000;3768;3769;1;13023;32.64;34.54;33,7;BCS1388054;6;3
009563;06.01.2020;09:50:46;Fastcharge    ;04.12.2018;FEY;;LION;49;14500;7200;192;36;57;60;8400;3000;3780;3782;1;13023;31.24;31.14;32,7;BCS1388054;6;3
009563;06.01.2020;13:06:22;Stop          ;04.12.2018;FEY;;LION;49;14500;7200;224;36;95;100;8400;;4162;4163;1;13024;29.44;30.54;32,1;BCS1388054;6;3

File: 009576.txt
Serialnumber ; Date ; Time ; Action ; Date of Manufacture ; Manufacturer ; Battery Name ; Device-Chemistry ; Specification-Info ; Design-Capacity [mAh] ; Design-Voltage [mV] ; Battery Status ; Cycle Count ; SOC [%] ; Relativ SOC[%] ; Desired Voltage [mV]; Desired Current [mA]; Cell Voltage 1 [mV] ; Cell Voltage 2 [mV] ; Max_Error [%] ; Busvoltage[mV] ; Battery Temperature [°C] ; Charger Temperature [°C] ; Batterysystem ; Case ; PLace
009576;07.12.2020;04:14:40;Cycle         ;04.12.2018;FEY;;LION;49;14500;7200;192;3;95;96;8400;;4112;4111;1;13026;25.64;28.34;30,3;BCS1388054;7;8
009576;08.12.2020;16:20:20;Stop          ;04.12.2018;FEY;;LION;49;14500;7200;192;3;95;96;8400;;4110;4110;1;13029;27.74;29.74;31,9;BCS1388054;7;8
009576;12.01.2021;04:17:36;Charge to 90% ;04.12.2018;FEY;;LION;49;14500;7200;192;3;95;96;8400;;4099;4099;1;13020;23.04;23.74;23,6;BCS1388054;5;18
009576;12.01.2021;05:15:37;Stop          ;04.12.2018;FEY;;LION;49;14500;7200;192;4;90;90;8400;3000;4044;4044;1;13014;27.24;28.54;31,6;BCS1388054;5;18
009576;12.01.2021;05:21:53;Cycle         ;04.12.2018;FEY;;LION;49;14500;7200;192;4;90;90;8400;3000;4044;4044;1;13014;27.04;28.24;30,6;BCS1388054;5;18
009576;13.01.2021;08:31:10;Stop          ;04.12.2018;FEY;;LION;49;14500;7200;224;5;97;100;8400;;4156;4158;1;13014;26.84;28.24;31,1;BCS1388054;5;18
009576;21.02.2021;13:43:19;Normalcharge  ;04.12.2018;FEY;;LION;49;14500;7200;192;5;71;74;8400;3000;3881;3883;1;13005;23.74;25.34;27,5;BCS1388054;1;7
009576;22.02.2021;17:08:49;Stop          ;04.12.2018;FEY;;LION;49;14500;7200;224;5;97;100;8400;;4147;4148;1;13006;26.34;27.34;30,0;BCS1388054;1;7