Folder: Battery_sort_V2/V2/reader/Batterieverzeichnis (part 3)

File: 009646.txt
Serialnumber ; Date ; Time ; Action ; Date of Manufacture ; Manufacturer ; Battery Name ; Device-Chemistry ; Specification-Info ; Design-Capacity [mAh] ; Design-Voltage [mV] ; Battery Status ; Cycle Count ; SOC [%] ; Relativ SOC[%] ; Desired Voltage [mV]; Desired Current [mA]; Cell Voltage 1 [mV] ; Cell Voltage 2 [mV] ; Max_Error [%] ; Busvoltage[mV] ; Battery Temperature [°C] ; Charger Temperature [°C] ; Batterysystem ; Case ; PLace
009646;07.12.2020;04:14:36;Cycle         ;03.12.2018;FEY;;LION;49;14500;7200;192;1;97;98;8400;;4127;4130;1;12993;25.34;28.14;30,3;BCS1388054;6;8
009646;08.12.2020;16:20:13;Stop          ;03.12.2018;FEY;;LION;49;14500;7200;192;1;97;98;8400;;4126;4128;1;12996;27.54;29.84;31,9;BCS1388054;6;8
009646;12.01.2021;04:17:33;Charge to 90% ;03.12.2018;FEY;;LION;49;14500;7200;192;1;96;97;8400;;4114;4116;1;13008;22.74;23.44;23,6;BCS1388054;4;6
009646;12.01.2021;04:57:16;Stop          ;03.12.2018;FEY;;LION;49;14500;7200;192;1;89;90;8400;3000;4054;4056;1;13002;27.14;28.44;31,6;BCS1388054;4;6
009646;12.01.2021;05:21:49;Cycle         ;03.12.2018;FEY;;LION;49;14500;7200;192;1;89;90;8400;3000;4057;4059;1;13003;26.94;26.94;30,4;BCS1388054;4;6
009646;13.01.2021;08:19:19;Stop          ;03.12.2018;FEY;;LION;49;14500;7200;224;2;97;100;8400;;4156;4157;1;13003;26.54;27.14;30,7;BCS1388054;4;6
009646;03.03.2021;08:17:46;Normalcharge  ;03.12.2018;FEY;;LION;49;14500;7200;2768;3;;;8400;3000;3059;3055;1;13025;22.74;23.94;23,6;BCS1388054;7;12
009646;03.03.2021;10:54:05;Stop          ;03.12.2018;FEY;;LION;49;14500;7200;128;3;32;33;8400;3000;3675;3625;1;12685;28.74;30.34;31,4;BCS1388054;7;12
009646;03.03.2021;10:55:49;Normalcharge  ;03.12.2018;FEY;;LION;49;14500;7200;192;3;32;33;8400;3000;3591;3591;1;13017;28.74;29.04;30,6;BCS1388054;7;12
009646;03.03.2021;17:03:24;Stop          ;03.12.2018;FEY;;LION;49;14500;7200;224;3;97;100;8400;;4164;4165;1;13017;25.84;26.94;31,4;BCS1388054;7;12

File: 009658.txt
Serialnumber ; Date ; Time ; Action ; Date of Manufacture ; Manufacturer ; Battery Name ; Device-Chemistry ; Specification-Info ; Design-Capacity [mAh] ; Design-Voltage [mV] ; Battery Status ; Cycle Count ; SOC [%] ; Relativ SOC[%] ; Desired Voltage [mV]; Desired Current [mA]; Cell Voltage 1 [mV] ; Cell Voltage 2 [mV] ; Max_Error [%] ; Busvoltage[mV] ; Battery Temperature [°C] ; Charger Temperature [°C] ; Batterysystem ; Case ; PLace
009658;07.12.2020;04:14:25;Cycle          ;04.12.2018;FEY;;LION;49;14500;7200;192;2;99;98;8400;;4152;4150;1;13003;25.74;26.54;30,3;BCS1388054;3;16
009658;08.12.2020;16:19:50;Stop           ;04.12.2018;FEY;;LION;49;14500;7200;192;2;100;99;8400;;4149;4148;1;13003;27.94;28.24;31,9;BCS1388054;3;16
009658;12.01.2021;04:17:47;Charge to 90% ;04.12.2018;FEY;;LION;49;14500;7200;192;2;98;97;8400;;4134;4132;1;13031;23.14;23.64;23,8;BCS1388054;7;2
009658;12.01.2021;04:57:19;Stop          ;04.12.2018;FEY;;LION;49;14500;7200;192;2;91;90;8400;3000;4060;4059;1;13027;26.64;29.34;31,5;BCS1388054;7;2
009658;12.01.2021;05:22:01;Cycle         ;04.12.2018;FEY;;LION;49;14500;7200;192;2;91;90;8400;3000;4066;4065;1;13028;26.74;28.04;30,4;BCS1388054;7;2
009658;13.01.2021;08:19:29;Stop          ;04.12.2018;FEY;;LION;49;14500;7200;224;3;97;99;8400;;4155;4154;1;13027;26.64;28.04;30,7;BCS1388054;7;2
009658;21.02.2021;13:43:32;Normalcharge  ;04.12.2018;FEY;;LION;49;14500;7200;192;4;57;59;8400;3000;3722;3721;1;13001;23.24;25.34;27,5;BCS1388054;2;17
009658;21.02.2021;19:27:00;Stop          ;04.12.2018;FEY;;LION;49;14500;7200;224;4;97;100;8400;;4155;4156;1;13001;26.94;28.44;31,1;BCS1388054;2;17

File: 009708.txt
Serialnumber ; Date ; Time ; Action ; Date of Manufacture ; Manufacturer ; Battery Name ; Device-Chemistry ; Specification-Info ; Design-Capacity [mAh] ; Design-Voltage [mV] ; Battery Status ; Cycle Count ; SOC [%] ; Relativ SOC[%] ; Desired Voltage [mV]; Desired Current [mA]; Cell Voltage 1 [mV] ; Cell Voltage 2 [mV] ; Max_Error [%] ; Busvoltage[mV] ; Battery Temperature [°C] ; Charger Temperature [°C] ; Batterysystem ; Case ; PLace
009708;07.12.2020;04:14:25;Cycle          ;04.12.2018;FEY;;LION;49;14500;7200;192;3;97;98;8400;;4144;4143;1;13012;25.64;27.54;30,3;BCS1388054;3;15
009708;08.12.2020;16:19:50;Stop           ;04.12.2018;FEY;;LION;49;14500;7200;192;3;97;98;8400;;4142;4141;1;13011;27.84;29.34;31,9;BCS1388054;3;15
009708;12.01.2021;04:17:47;Charge to 90% ;04.12.2018;FEY;;LION;49;14500;7200;192;3;96;97;8400;;4126;4126;1;13039;23.04;22.94;23,8;BCS1388054;7;14
009708;12.01.2021;04:57:20;Stop          ;04.12.2018;FEY;;LION;49;14500;7200;192;3;90;90;8400;3000;4060;4059;1;13035;26.44;29.24;31,5;BCS1388054;7;14
009708;12.01.2021;05:22:01;Cycle         ;04.12.2018;FEY;;LION;49;14500;7200;192;3;90;90;8400;3000;4065;4064;1;13035;26.64;27.44;30,4;BCS1388054;7;14
009708;13.01.2021;08:19:29;Stop          ;04.12.2018;FEY;;LION;49;14500;7200;224;4;97;100;8400;;4155;4155;1;13034;26.74;27.34;30,7;BCS1388054;7;14
009708;21.02.2021;13:44:56;Normalcharge  ;04.12.2018;FEY;;LION;49;14500;7200;192;5;52;54;8400;3000;3682;3681;1;13014;22.84;23.14;27,7;BCS1388054;5;11
009708;21.02.2021;19:31:36;Stop          ;04.12.2018;FEY;;LION;49;14500;7200;224;5;97;100;8400;;4154;4153;1;13008;27.04;27.24;30,6;BCS1388054;5;11

File: 009734.txt
Serialnumber ; Date ; Time ; Action ; Date of Manufacture ; Manufacturer ; Battery Name ; Device-Chemistry ; Specification-Info ; Design-Capacity [mAh] ; Design-Voltage [mV] ; Battery Status ; Cycle Count ; SOC [%] ; Relativ SOC[%] ; Desired Voltage [mV]; Desired Current [mA]; Cell Voltage 1 [mV] ; Cell Voltage 2 [mV] ; Max_Error [%] ; Busvoltage[mV] ; Battery Temperature [°C] ; Charger Temperature [°C] ; Batterysystem ; Case ; PLace
009734;30.11.2020;09:42:55;Stop          ;04.12.2018;FEY;;LION;49;14500;7200;16576;3;99;98;;;4148;4145;1;13026;27.94;29.64;31,7;BCS1388054;7;1
009734;12.01.2021;04:16:00;Charge to 90% ;04.12.2018;FEY;;LION;49;14500;7200;16576;3;97;97;;;4129;4126;1;13011;23.34;21.14;23,0;BCS1388054;1;3
009734;12.01.2021;04:16:03;Stop          ;04.12.2018;FEY;;LION;49;14500;7200;16576;3;97;97;;;4129;4126;1;13012;23.34;23.44;23,0;BCS1388054;1;3
009734;12.01.2021;04:17:15;Charge to 90% ;04.12.2018;FEY;;LION;49;14500;7200;16576;3;97;97;;;4128;4126;1;13010;23.34;24.34;23,5;BCS1388054;1;3
009734;12.01.2021;04:55:18;Stop          ;04.12.2018;FEY;;LION;49;14500;7200;192;4;91;90;8400;3000;4059;4056;1;13003;26.64;31.14;31,7;BCS1388054;1;3
009734;12.01.2021;05:21:33;Cycle         ;04.12.2018;FEY;;LION;49;14500;7200;192;4;91;90;8400;3000;4066;4062;1;13006;26.94;28.84;30,6;BCS1388054;1;3
009734;13.01.2021;08:18:34;Stop          ;04.12.2018;FEY;;LION;49;14500;7200;224;5;98;100;8400;;4155;4155;1;13004;26.94;28.74;30,7;BCS1388054;1;3
009734;22.02.2021;17:31:46;Normalcharge  ;04.12.2018;FEY;;LION;49;14500;7200;192;5;63;65;8400;3000;3807;3805;1;12991;26.14;25.74;31,6;BCS1388054;1;11
009734;22.02.2021;23:06:28;Stop          ;04.12.2018;FEY;;LION;49;14500;7200;224;5;98;100;8400;;4153;4153;1;12992;26.64;26.24;30,6;BCS1388054;1;11