Folder: Battery_sort_V2/reader/backup_20220209/Batterieverzeichnis_new (part 2)

File: 009569.txt
Serialnumber ; Date ; Time ; Action ; Date of Manufacture ; Manufacturer ; Battery Name ; Device-Chemistry ; Specification-Info ; Design-Capacity [mAh] ; Design-Voltage [mV] ; Battery Status ; Cycle Count ; SOC [%] ; Relativ SOC[%] ; Desired Voltage [mV]; Desired Current [mA]; Cell Voltage 1 [mV] ; Cell Voltage 2 [mV] ; Max_Error [%] ; Busvoltage[mV] ; Battery Temperature [°C] ; Charger Temperature [°C] ; Batterysystem ; Case ; PLace
009569;07.12.2020;04:14:36;Cycle         ;04.12.2018;FEY;;LION;49;14500;7200;192;1;96;97;8400;;4132;4134;1;13010;25.64;28.64;30,3;BCS1388054;6;15
009569;08.12.2020;16:20:13;Stop          ;04.12.2018;FEY;;LION;49;14500;7200;192;1;96;97;8400;;4130;4131;1;13010;27.74;30.24;31,9;BCS1388054;6;15
009569;12.01.2021;04:17:40;Charge to 90% ;04.12.2018;FEY;;LION;49;14500;7200;192;1;95;96;8400;;4118;4119;1;13003;23.14;23.94;23,6;BCS1388054;6;8
009569;12.01.2021;05:00:55;Stop          ;04.12.2018;FEY;;LION;49;14500;7200;192;1;89;90;8400;3000;4061;4062;1;12997;26.84;29.94;31,2;BCS1388054;6;8
009569;12.01.2021;05:21:57;Cycle         ;04.12.2018;FEY;;LION;49;14500;7200;192;1;89;90;8400;3000;4063;4064;1;12998;27.04;28.74;30,4;BCS1388054;6;8
009569;13.01.2021;08:31:18;Stop          ;04.12.2018;FEY;;LION;49;14500;7200;224;2;97;100;8400;;4156;4159;1;13001;27.14;28.64;31,1;BCS1388054;6;8
009569;22.02.2021;17:31:46;Normalcharge  ;04.12.2018;FEY;;LION;49;14500;7200;192;3;59;61;8400;3000;3757;3763;1;12993;26.54;27.44;31,6;BCS1388054;1;14
009569;22.02.2021;23:06:28;Stop          ;04.12.2018;FEY;;LION;49;14500;7200;224;3;97;100;8400;;4156;4157;1;12995;26.74;28.64;30,6;BCS1388054;1;14
009569;04.04.2021;11:50:33;Normalcharge  ;04.12.2018;FEY;;LION;49;14500;7200;192;3;53;55;8400;3000;3697;3698;1;13017;25.04;25.94;27,9;BCS1388054;2;6
009569;04.04.2021;11:51:48;Stop          ;04.12.2018;FEY;;LION;49;14500;7200;128;3;53;55;8400;3000;3784;3738;1;12611;25.04;28.04;28,6;BCS1388054;2;6
009569;05.04.2021;09:37:46;Charge to 60% ;04.12.2018;FEY;;LION;49;14500;7200;192;3;53;55;8400;3000;3700;3700;1;13004;25.14;25.44;26,1;BCS1388054;2;11
009569;05.04.2021;10:03:48;Stop          ;04.12.2018;FEY;;LION;49;14500;7200;192;3;57;60;8400;3000;3761;3765;1;12999;27.04;27.94;31,4;BCS1388054;2;11
009569;22.08.2021;11:07:55;Normalcharge  ;04.12.2018;FEY;;LION;49;14500;7200;192;3;45;46;8400;3000;3624;3624;1;12993;22.44;30.24;32,0;BCS1388054;2;8
009569;22.08.2021;11:08:28;Stop          ;04.12.2018;FEY;;LION;49;14500;7200;128;3;45;46;8400;3000;3672;3646;1;12607;22.54;31.34;32,4;BCS1388054;2;8
009569;25.08.2021;08:13:04;Normalcharge  ;04.12.2018;FEY;;LION;49;14500;7200;192;3;44;46;8400;3000;3626;3626;1;13013;30.44;30.44;32,4;BCS1388054;7;6
009569;25.08.2021;08:13:16;Stop          ;04.12.2018;FEY;;LION;49;14500;7200;192;3;44;46;8400;3000;3626;3626;1;13001;30.44;30.64;32,5;BCS1388054;7;6
009569;25.08.2021;08:14:41;Charge to 60% ;04.12.2018;FEY;;LION;49;14500;7200;192;3;44;46;8400;3000;3626;3626;1;13016;30.44;30.54;33,0;BCS1388054;7;6
009569;25.08.2021;08:37:46;Stop          ;04.12.2018;FEY;;LION;49;14500;7200;128;3;49;50;8400;3000;3746;3699;1;12747;32.04;34.84;36,1;BCS1388054;7;6
009569;25.08.2021;08:38:03;Charge to 60% ;04.12.2018;FEY;;LION;49;14500;7200;128;3;49;50;8400;3000;3667;3670;1;13014;32.14;33.74;36,1;BCS1388054;7;6
009569;25.08.2021;13:26:36;Stop          ;04.12.2018;FEY;;LION;49;14500;7200;192;3;58;60;8400;3000;3734;3735;1;13015;32.44;32.34;36,4;BCS1388054;7;6
009569;01.11.2021;09:51:55;Normalcharge  ;04.12.2018;FEY;;LION;49;14500;7200;192;3;54;56;8400;3000;3706;3707;1;12994;25.84;26.24;26,3;BCS1388054;6;8
009569;01.11.2021;09:53:45;Stop          ;04.12.2018;FEY;;LION;49;14500;7200;128;3;54;56;8400;3000;3799;3751;1;12619;25.84;30.24;27,3;BCS1388054;6;8
009569;01.11.2021;10:02:24;Normalcharge  ;04.12.2018;FEY;;LION;49;14500;7200;192;3;54;56;8400;3000;3710;3711;1;12990;26.04;28.54;29,5;BCS1388054;6;8
009569;01.11.2021;10:03:07;Stop          ;04.12.2018;FEY;;LION;49;14500;7200;128;3;54;56;8400;3000;3789;3745;1;12618;26.04;29.84;29,3;BCS1388054;6;8
009569;01.11.2021;10:27:30;Normalcharge  ;04.12.2018;FEY;;LION;49;14500;7200;192;3;54;56;8400;3000;3711;3712;1;12992;26.24;27.04;27,8;BCS1388054;6;8
009569;01.11.2021;10:29:18;Stop          ;04.12.2018;FEY;;LION;49;14500;7200;128;3;54;56;8400;3000;3803;3756;1;12622;26.34;31.04;28,6;BCS1388054;6;8
009569;01.11.2021;14:25:59;Stop          ;04.12.2018;FEY;;LION;49;14500;7200;192;3;58;60;8400;3000;3752;3754;1;12990;28.44;30.34;32,6;BCS1388054;6;8

File: 009589.txt
Serialnumber ; Date ; Time ; Action ; Date of Manufacture ; Manufacturer ; Battery Name ; Device-Chemistry ; Specification-Info ; Design-Capacity [mAh] ; Design-Voltage [mV] ; Battery Status ; Cycle Count ; SOC [%] ; Relativ SOC[%] ; Desired Voltage [mV]; Desired Current [mA]; Cell Voltage 1 [mV] ; Cell Voltage 2 [mV] ; Max_Error [%] ; Busvoltage[mV] ; Battery Temperature [°C] ; Charger Temperature [°C] ; Batterysystem ; Case ; PLace
009589;07.12.2020;04:14:21;Cycle         ;03.12.2018;FEY;;LION;49;14500;7200;224;4;98;99;8400;;4143;4142;1;12988;25.84;28.04;30,3;BCS1388054;2;15
009589;08.12.2020;16:19:44;Stop          ;03.12.2018;FEY;;LION;49;14500;7200;224;5;98;100;8400;;4152;4152;1;12988;28.04;29.64;31,9;BCS1388054;2;15
009589;03.03.2021;08:17:40;Normalcharge  ;03.12.2018;FEY;;LION;49;14500;7200;192;5;70;71;8400;3000;3863;3862;1;13002;23.34;23.24;23,6;BCS1388054;6;7
009589;03.03.2021;11:56:52;Stop          ;03.12.2018;FEY;;LION;49;14500;7200;224;5;98;100;8400;;4157;4157;1;12994;28.84;29.24;31,7;BCS1388054;6;7
009589;06.04.2021;08:38:46;Normalcharge  ;03.12.2018;FEY;;LION;49;14500;7200;224;5;97;99;8400;;4133;4132;1;12992;21.74;25.74;28,1;BCS1388054;2;18
009589;06.04.2021;08:39:36;Stop          ;03.12.2018;FEY;;LION;49;14500;7200;224;5;97;99;8400;;4132;4132;1;12990;21.84;25.94;28,2;BCS1388054;2;18
009589;08.04.2021;07:57:57;Normalcharge  ;03.12.2018;FEY;;LION;49;14500;7200;224;5;97;99;8400;;4132;4131;1;12994;25.44;25.94;26,3;BCS1388054;2;18
009589;08.04.2021;07:59:45;Stop          ;03.12.2018;FEY;;LION;49;14500;7200;224;5;97;99;8400;;4132;4131;1;12990;25.54;26.44;26,8;BCS1388054;2;18
009589;08.04.2021;10:35:00;Normalcharge  ;03.12.2018;FEY;;LION;49;14500;7200;224;5;97;99;8400;;4132;4131;1;12991;25.94;26.34;28,1;BCS1388054;2;18
009589;08.04.2021;10:36:53;Stop          ;03.12.2018;FEY;;LION;49;14500;7200;224;5;97;99;8400;;4131;4131;1;12989;25.94;26.94;28,9;BCS1388054;2;18
009589;18.04.2021;08:33:36;Normalcharge  ;03.12.2018;FEY;;LION;49;14500;7200;224;5;96;99;8400;;4128;4127;1;12990;26.44;27.14;27,7;BCS1388054;2;18
009589;18.04.2021;08:33:44;Stop          ;03.12.2018;FEY;;LION;49;14500;7200;224;5;96;99;8400;;4128;4127;1;12990;26.44;27.24;27,8;BCS1388054;2;18
009589;04.08.2021;07:24:55;Normalcharge  ;03.12.2018;FEY;;LION;49;14500;7200;192;5;94;96;8400;;4095;4094;1;12984;30.74;31.54;31,5;BCS1388054;2;18
009589;04.08.2021;07:25:47;Stop          ;03.12.2018;FEY;;LION;49;14500;7200;192;5;94;96;8400;;4094;4093;1;12982;30.74;31.74;31,9;BCS1388054;2;18
009589;22.08.2021;11:07:59;Normalcharge  ;03.12.2018;FEY;;LION;49;14500;7200;192;6;70;71;8400;3000;3860;3859;1;13001;22.84;29.64;32,1;BCS1388054;3;5
009589;22.08.2021;11:08:33;Stop           ;03.12.2018;FEY;;LION;49;14500;7200;128;6;70;71;8400;3000;3920;3887;1;12699;22.94;30.74;32,4;BCS1388054;3;5
009589;12.10.2021;12:58:56;Normalcharge  ;03.12.2018;FEY;;LION;49;14500;7200;192;6;70;71;8400;3000;3850;3849;1;12990;23.64;27.84;28,5;BCS1388054;6;13
009589;12.10.2021;12:59:25;Stop          ;03.12.2018;FEY;;LION;49;14500;7200;128;6;70;71;8400;3000;3856;3852;1;12954;23.74;28.94;28,6;BCS1388054;6;13
009589;14.10.2021;12:40:12;Normalcharge  ;03.12.2018;FEY;;LION;49;14500;7200;192;6;70;71;8400;3000;3850;3849;1;13009;23.94;26.04;27,9;BCS1388054;5;4
009589;14.10.2021;12:41:49;Stop          ;03.12.2018;FEY;;LION;49;14500;7200;128;6;70;72;8400;3000;3946;3898;1;12654;24.14;29.84;28,5;BCS1388054;5;4

File: 009601.txt
Serialnumber ; Date ; Time ; Action ; Date of Manufacture ; Manufacturer ; Battery Name ; Device-Chemistry ; Specification-Info ; Design-Capacity [mAh] ; Design-Voltage [mV] ; Battery Status ; Cycle Count ; SOC [%] ; Relativ SOC[%] ; Desired Voltage [mV]; Desired Current [mA]; Cell Voltage 1 [mV] ; Cell Voltage 2 [mV] ; Max_Error [%] ; Busvoltage[mV] ; Battery Temperature [°C] ; Charger Temperature [°C] ; Batterysystem ; Case ; PLace
009601;07.12.2020;04:14:25;Cycle          ;04.12.2018;FEY;;LION;49;14500;7200;16576;1;97;98;;;4153;4153;1;13013;25.94;27.34;30,3;BCS1388054;3;14
009601;08.12.2020;16:19:50;Stop           ;04.12.2018;FEY;;LION;49;14500;7200;16576;1;97;99;;;4150;4150;1;13014;28.14;29.14;31,9;BCS1388054;3;14
009601;12.01.2021;04:17:47;Charge to 90% ;04.12.2018;FEY;;LION;49;14500;7200;16576;1;95;97;;;4134;4134;1;13033;23.24;23.94;23,8;BCS1388054;7;1
009601;12.01.2021;04:57:19;Stop          ;04.12.2018;FEY;;LION;49;14500;7200;192;1;89;90;8400;3000;4063;4062;1;13028;27.34;29.74;31,5;BCS1388054;7;1
009601;12.01.2021;05:22:01;Cycle         ;04.12.2018;FEY;;LION;49;14500;7200;192;1;89;90;8400;3000;4068;4067;1;13029;27.14;28.34;30,4;BCS1388054;7;1
009601;13.01.2021;08:19:29;Stop          ;04.12.2018;FEY;;LION;49;14500;7200;224;3;97;100;8400;;4154;4156;1;13029;26.74;28.24;30,7;BCS1388054;7;1
009601;21.02.2021;13:43:19;Normalcharge  ;04.12.2018;FEY;;LION;49;14500;7200;192;3;59;61;8400;3000;3748;3755;1;12986;24.14;25.24;27,5;BCS1388054;1;12
009601;22.02.2021;17:08:49;Stop          ;04.12.2018;FEY;;LION;49;14500;7200;224;3;97;100;8400;;4148;4152;1;12987;26.24;26.44;30,0;BCS1388054;1;12
009601;06.04.2021;08:38:50;Normalcharge  ;04.12.2018;FEY;;LION;49;14500;7200;224;3;95;99;8400;;4128;4130;1;13004;21.24;25.24;28,1;BCS1388054;3;1
009601;06.04.2021;08:39:42;Stop           ;04.12.2018;FEY;;LION;49;14500;7200;224;3;95;99;8400;;4128;4130;1;13003;21.34;25.74;28,2;BCS1388054;3;1
009601;08.04.2021;07:58:01;Normalcharge  ;04.12.2018;FEY;;LION;49;14500;7200;224;3;95;99;8400;;4127;4130;1;13005;25.54;25.24;26,4;BCS1388054;3;1
009601;08.04.2021;07:59:40;Stop           ;04.12.2018;FEY;;LION;49;14500;7200;224;3;95;99;8400;;4127;4129;1;13002;25.54;26.54;26,8;BCS1388054;3;1
009601;08.04.2021;10:35:05;Normalcharge  ;04.12.2018;FEY;;LION;49;14500;7200;224;3;95;99;8400;;4127;4129;1;13003;25.84;25.64;28,1;BCS1388054;3;1
009601;08.04.2021;10:36:56;Stop           ;04.12.2018;FEY;;LION;49;14500;7200;224;3;95;99;8400;;4127;4129;1;13002;25.84;27.04;29,0;BCS1388054;3;1
009601;18.04.2021;08:33:50;Normalcharge  ;04.12.2018;FEY;;LION;49;14500;7200;224;3;95;99;8400;;4123;4126;1;13001;26.44;27.04;27,8;BCS1388054;3;1
009601;18.04.2021;08:33:58;Stop           ;04.12.2018;FEY;;LION;49;14500;7200;224;3;95;99;8400;;4123;4126;1;13002;26.44;27.14;27,9;BCS1388054;3;1
009601;04.08.2021;07:24:50;Normalcharge  ;04.12.2018;FEY;;LION;49;14500;7200;192;3;92;96;8400;;4092;4093;1;13000;30.64;31.04;31,6;BCS1388054;3;1
009601;04.08.2021;07:25:37;Stop           ;04.12.2018;FEY;;LION;49;14500;7200;192;3;93;96;8400;;4092;4094;1;12998;30.64;31.64;31,7;BCS1388054;3;1
009601;22.08.2021;11:37:13;Normalcharge  ;04.12.2018;FEY;;LION;49;14500;7200;192;3;93;96;8400;;4087;4089;1;13021;22.74;29.24;31,9;BCS1388054;7;13
009601;22.08.2021;11:37:48;Stop          ;04.12.2018;FEY;;LION;49;14500;7200;192;3;93;96;8400;;4087;4089;1;12996;22.94;29.34;31,9;BCS1388054;7;13
009601;12.10.2021;12:59:04;Normalcharge  ;04.12.2018;FEY;;LION;49;14500;7200;192;3;88;91;8400;3000;4040;4042;1;13026;24.04;27.14;28,5;BCS1388054;7;17
009601;12.10.2021;12:59:37;Stop          ;04.12.2018;FEY;;LION;49;14500;7200;128;3;88;91;8400;3000;4053;4050;1;12928;24.14;28.54;28,6;BCS1388054;7;17
009601;14.10.2021;12:40:12;Normalcharge  ;04.12.2018;FEY;;LION;49;14500;7200;192;3;88;91;8400;3000;4039;4042;1;13000;23.64;25.34;27,9;BCS1388054;5;10
009601;14.10.2021;12:41:50;Stop          ;04.12.2018;FEY;;LION;49;14500;7200;128;3;88;91;8400;3000;4117;4088;1;12632;23.84;28.34;28,5;BCS1388054;5;10
009601;28.12.2021;09:01:29;Normalcharge  ;04.12.2018;FEY;;LION;49;14500;7200;192;3;64;66;8400;3000;3805;3808;1;12996;23.84;23.94;25,4;BCS1388054;4;11
009601;28.12.2021;09:02:38;Stop          ;04.12.2018;FEY;;LION;49;14500;7200;128;3;64;66;8400;3000;3899;3854;1;12560;23.84;26.24;25,8;BCS1388054;4;11

File: 009633.txt
Serialnumber ; Date ; Time ; Action ; Date of Manufacture ; Manufacturer ; Battery Name ; Device-Chemistry ; Specification-Info ; Design-Capacity [mAh] ; Design-Voltage [mV] ; Battery Status ; Cycle Count ; SOC [%] ; Relativ SOC[%] ; Desired Voltage [mV]; Desired Current [mA]; Cell Voltage 1 [mV] ; Cell Voltage 2 [mV] ; Max_Error [%] ; Busvoltage[mV] ; Battery Temperature [°C] ; Charger Temperature [°C] ; Batterysystem ; Case ; PLace
009633;10.12.2019;15:28:48;Ladung auf 30% ;04.12.2018;FEY;;LION;49;14500;7200;224;53;94;100;8400;;4132;4131;1;13011;22.44;25.24;27,1;BCS1388054;3;13
009633;10.12.2019;20:47:21;Stop           ;04.12.2018;FEY;;LION;49;14500;7200;192;54;29;30;8400;3000;3553;3553;1;13010;34.14;39.34;33,5;BCS1388054;3;13
009633;11.12.2019;08:48:36;Fastcharge    ;04.12.2018;FEY;;LION;49;14500;7200;192;54;29;30;8400;3000;3567;3567;1;13010;26.14;29.04;31,9;BCS1388054;3;13
009633;11.12.2019;13:39:41;Stop           ;04.12.2018;FEY;;LION;49;14500;7200;224;54;95;100;8400;;4164;4164;1;13010;30.54;33.34;32,5;BCS1388054;3;13
009633;11.12.2019;15:46:24;Ladung auf 10% ;04.12.2018;FEY;;LION;49;14500;7200;224;54;97;100;8400;;4154;4153;1;13010;27.14;29.74;31,4;BCS1388054;3;13
009633;11.12.2019;22:48:44;Stop           ;04.12.2018;FEY;;LION;49;14500;7200;192;55;10;10;8400;3000;3351;3351;1;13009;34.94;38.64;33,6;BCS1388054;3;13
009633;12.12.2019;08:44:58;Normalcharge  ;04.12.2018;FEY;;LION;49;14500;7200;192;55;9;10;8400;3000;3363;3364;1;13011;26.34;29.34;31,9;BCS1388054;3;13
009633;12.12.2019;16:39:24;Stop           ;04.12.2018;FEY;;LION;49;14500;7200;224;55;96;100;8400;;4162;4161;1;13010;29.54;32.34;31,7;BCS1388054;3;13
009633;13.12.2019;10:47:57;Ladung auf 10% ;04.12.2018;FEY;;LION;49;14500;7200;224;55;96;100;8400;;4148;4147;1;13009;26.34;29.24;32,0;BCS1388054;3;13
009633;13.12.2019;15:42:18;Stop           ;04.12.2018;FEY;;LION;49;14500;7200;192;56;35;37;8400;3000;3502;3554;1;13548;33.24;43.24;34,6;BCS1388054;3;13
009633;13.12.2019;15:42:20;Cycle          ;04.12.2018;FEY;;LION;49;14500;7200;192;56;35;37;8400;3000;3502;3554;1;13009;33.24;43.24;34,6;BCS1388054;3;13
009633;14.12.2019;22:36:33;Stop           ;04.12.2018;FEY;;LION;49;14500;7200;224;57;94;99;8400;;4151;4152;1;13011;26.54;29.24;31,6;BCS1388054;3;13
009633;16.12.2019;07:43:10;Ladung auf 10% ;04.12.2018;FEY;;LION;49;14500;7200;224;57;94;100;8400;;4145;4146;1;13011;26.14;28.84;31,9;BCS1388054;3;13
009633;16.12.2019;14:34:27;Stop           ;04.12.2018;FEY;;LION;49;14500;7200;192;58;10;10;8400;3000;3264;3318;1;13009;33.34;41.64;32,5;BCS1388054;3;13
009633;16.12.2019;14:44:07;Ladung auf 90% ;04.12.2018;FEY;;LION;49;14500;7200;192;58;10;10;8400;3000;3363;3364;1;13010;32.54;33.54;31,7;BCS1388054;3;13
009633;16.12.2019;20:48:39;Stop           ;04.12.2018;FEY;;LION;49;14500;7200;128;58;85;90;8400;3000;4065;4067;1;13011;32.54;38.84;31,9;BCS1388054;3;13
009633;17.12.2019;08:37:45;Fastcharge    ;04.12.2018;FEY;;LION;49;14500;7200;192;58;85;90;8400;3000;4045;4046;1;13010;26.24;28.94;31,5;BCS1388054;3;13
009633;17.12.2019;10:30:44;Stop           ;04.12.2018;FEY;;LION;49;14500;7200;224;58;95;100;8400;;4162;4161;1;13010;28.24;31.54;31,4;BCS1388054;3;13
009633;17.12.2019;13:38:28;Ladung auf 10% ;04.12.2018;FEY;;LION;49;14500;7200;224;58;95;100;8400;;4150;4149;1;13010;26.54;29.24;30,8;BCS1388054;3;13
009633;17.12.2019;20:32:04;Stop           ;04.12.2018;FEY;;LION;49;14500;7200;192;59;10;10;8400;3000;3264;3317;1;13010;35.04;43.24;34,6;BCS1388054;3;13
009633;18.12.2019;08:31:22;Fastcharge    ;04.12.2018;FEY;;LION;49;14500;7200;192;59;10;10;8400;3000;3370;3371;1;13010;26.34;29.24;31,6;BCS1388054;3;13
009633;18.12.2019;14:26:33;Stop           ;04.12.2018;FEY;;LION;49;14500;7200;224;59;95;100;8400;;4164;4162;1;13010;30.54;33.54;32,5;BCS1388054;3;13
009633;19.12.2019;08:23:54;Ladung auf 60% ;04.12.2018;FEY;;LION;49;14500;7200;224;59;96;100;8400;;4149;4148;1;13009;26.24;29.04;31,6;BCS1388054;3;13
009633;19.12.2019;11:28:29;Stop           ;04.12.2018;FEY;;LION;49;14500;7200;192;60;58;60;8400;3000;3676;3728;1;13009;34.54;44.04;35,1;BCS1388054;3;13
009633;19.12.2019;12:16:41;Cycle          ;04.12.2018;FEY;;LION;49;14500;7200;192;60;58;60;8400;3000;3778;3779;1;13010;30.74;32.04;32,7;BCS1388054;3;13
009633;20.12.2019;17:23:28;Stop           ;04.12.2018;FEY;;LION;49;14500;7200;224;61;94;100;8400;;4152;4152;1;13010;26.74;29.34;31,9;BCS1388054;3;13
009633;06.01.2020;06:34:46;Ladung auf 60% ;04.12.2018;FEY;;LION;49;14500;7200;224;61;93;99;8400;;4123;4122;1;13010;26.44;29.14;31,9;BCS1388054;3;13
009633;06.01.2020;09:29:20;Stop           ;04.12.2018;FEY;;LION;49;14500;7200;192;62;57;60;8400;3000;3755;3756;1;13009;33.64;42.74;34,2;BCS1388054;3;13
009633;06.01.2020;09:50:34;Fastcharge    ;04.12.2018;FEY;;LION;49;14500;7200;192;62;57;60;8400;3000;3776;3779;1;13011;31.94;32.94;32,7;BCS1388054;3;13
009633;06.01.2020;13:06:26;Stop           ;04.12.2018;FEY;;LION;49;14500;7200;224;62;95;100;8400;;4163;4162;1;13010;30.14;32.94;32,1;BCS1388054;3;13

File: 009654.txt
Serialnumber ; Date ; Time ; Action ; Date of Manufacture ; Manufacturer ; Battery Name ; Device-Chemistry ; Specification-Info ; Design-Capacity [mAh] ; Design-Voltage [mV] ; Battery Status ; Cycle Count ; SOC [%] ; Relativ SOC[%] ; Desired Voltage [mV]; Desired Current [mA]; Cell Voltage 1 [mV] ; Cell Voltage 2 [mV] ; Max_Error [%] ; Busvoltage[mV] ; Battery Temperature [°C] ; Charger Temperature [°C] ; Batterysystem ; Case ; PLace
009654;07.12.2020;04:14:17;Cycle         ;03.12.2018;FEY;;LION;49;14500;7200;224;2;99;99;8400;;4154;4156;1;12998;25.74;28.24;30,3;BCS1388054;1;14
009654;08.12.2020;16:19:38;Stop          ;03.12.2018;FEY;;LION;49;14500;7200;224;3;97;100;8400;;4152;4154;1;12999;27.64;29.64;31,9;BCS1388054;1;14
009654;03.03.2021;08:17:29;Normalcharge  ;03.12.2018;FEY;;LION;49;14500;7200;192;3;89;91;8400;3000;4053;4054;1;13014;23.24;23.44;23,5;BCS1388054;4;1
009654;03.03.2021;10:32:46;Stop          ;03.12.2018;FEY;;LION;49;14500;7200;224;3;98;100;8400;;4155;4157;1;13009;28.24;29.94;32,0;BCS1388054;4;1
009654;04.04.2021;11:50:22;Normalcharge  ;03.12.2018;FEY;;LION;49;14500;7200;192;4;54;56;8400;3000;3704;3704;1;12996;25.04;26.04;27,9;BCS1388054;4;5
009654;04.04.2021;11:51:36;Stop          ;03.12.2018;FEY;;LION;49;14500;7200;128;4;54;56;8400;3000;3791;3746;1;12706;25.04;28.44;28,6;BCS1388054;4;5
009654;05.04.2021;09:37:37;Charge to 60% ;03.12.2018;FEY;;LION;49;14500;7200;192;4;54;56;8400;3000;3706;3707;1;13004;25.24;25.64;26,0;BCS1388054;1;17
009654;05.04.2021;10:01:53;Stop          ;03.12.2018;FEY;;LION;49;14500;7200;192;4;58;60;8400;3000;3767;3767;1;13000;26.94;28.84;31,2;BCS1388054;1;17
009654;22.08.2021;11:07:50;Normalcharge  ;03.12.2018;FEY;;LION;49;14500;7200;192;4;44;45;8400;3000;3615;3616;1;12991;22.54;29.54;32,0;BCS1388054;1;10
009654;22.08.2021;11:08:23;Stop          ;03.12.2018;FEY;;LION;49;14500;7200;128;4;44;45;8400;3000;3675;3642;1;12606;22.64;30.74;32,4;BCS1388054;1;10
009654;25.08.2021;08:14:57;Charge to 60% ;03.12.2018;FEY;;LION;49;14500;7200;192;4;43;44;8400;3000;3617;3617;1;12983;30.44;32.04;33,2;BCS1388054;6;10
009654;25.08.2021;09:50:39;Stop          ;03.12.2018;FEY;;LION;49;14500;7200;192;4;58;60;8400;3000;3736;3737;1;12981;34.44;34.94;36,4;BCS1388054;6;10
009654;01.11.2021;09:52:06;Normalcharge  ;03.12.2018;FEY;;LION;49;14500;7200;192;4;53;54;8400;3000;3689;3690;1;13005;24.44;24.34;26,3;BCS1388054;4;9
009654;01.11.2021;09:53:35;Stop          ;03.12.2018;FEY;;LION;49;14500;7200;128;4;53;55;8400;3000;3778;3733;1;12606;24.44;27.74;27,1;BCS1388054;4;9
009654;01.11.2021;10:02:14;Normalcharge  ;03.12.2018;FEY;;LION;49;14500;7200;192;4;53;55;8400;3000;3692;3693;1;12999;24.74;26.64;29,5;BCS1388054;4;9
009654;01.11.2021;10:03:16;Stop          ;03.12.2018;FEY;;LION;49;14500;7200;128;4;53;55;8400;3000;3780;3734;1;12589;24.84;28.84;29,3;BCS1388054;4;9
009654;01.11.2021;10:18:21;Normalcharge  ;03.12.2018;FEY;;LION;49;14500;7200;192;4;53;55;8400;3000;3694;3695;1;13000;25.24;26.04;28,4;BCS1388054;4;9
009654;01.11.2021;10:19:03;Stop          ;03.12.2018;FEY;;LION;49;14500;7200;128;4;53;55;8400;3000;3771;3728;1;12574;25.24;27.64;28,2;BCS1388054;4;9
009654;01.11.2021;10:28:22;Normalcharge  ;03.12.2018;FEY;;LION;49;14500;7200;192;4;53;55;8400;3000;3695;3696;1;13001;25.44;26.24;27,9;BCS1388054;4;9
009654;01.11.2021;10:29:09;Stop          ;03.12.2018;FEY;;LION;49;14500;7200;128;4;53;55;8400;3000;3771;3729;1;12573;25.54;27.84;28,5;BCS1388054;4;9
009654;01.11.2021;10:32:29;Charge to 60% ;03.12.2018;FEY;;LION;49;14500;7200;192;4;53;55;8400;3000;3696;3697;1;13000;25.64;26.74;29,7;BCS1388054;4;9
009654;01.11.2021;15:19:33;Stop          ;03.12.2018;FEY;;LION;49;14500;7200;192;4;58;60;8400;3000;3749;3748;1;13000;28.84;28.94;32,7;BCS1388054;4;9

File: 009658.txt
Serialnumber ; Date ; Time ; Action ; Date of Manufacture ; Manufacturer ; Battery Name ; Device-Chemistry ; Specification-Info ; Design-Capacity [mAh] ; Design-Voltage [mV] ; Battery Status ; Cycle Count ; SOC [%] ; Relativ SOC[%] ; Desired Voltage [mV]; Desired Current [mA]; Cell Voltage 1 [mV] ; Cell Voltage 2 [mV] ; Max_Error [%] ; Busvoltage[mV] ; Battery Temperature [°C] ; Charger Temperature [°C] ; Batterysystem ; Case ; PLace
009658;07.12.2020;04:14:25;Cycle          ;04.12.2018;FEY;;LION;49;14500;7200;192;2;99;98;8400;;4152;4150;1;13003;25.74;26.54;30,3;BCS1388054;3;16
009658;08.12.2020;16:19:50;Stop           ;04.12.2018;FEY;;LION;49;14500;7200;192;2;100;99;8400;;4149;4148;1;13003;27.94;28.24;31,9;BCS1388054;3;16
009658;12.01.2021;04:17:47;Charge to 90% ;04.12.2018;FEY;;LION;49;14500;7200;192;2;98;97;8400;;4134;4132;1;13031;23.14;23.64;23,8;BCS1388054;7;2
009658;12.01.2021;04:57:19;Stop          ;04.12.2018;FEY;;LION;49;14500;7200;192;2;91;90;8400;3000;4060;4059;1;13027;26.64;29.34;31,5;BCS1388054;7;2
009658;12.01.2021;05:22:01;Cycle         ;04.12.2018;FEY;;LION;49;14500;7200;192;2;91;90;8400;3000;4066;4065;1;13028;26.74;28.04;30,4;BCS1388054;7;2
009658;13.01.2021;08:19:29;Stop          ;04.12.2018;FEY;;LION;49;14500;7200;224;3;97;99;8400;;4155;4154;1;13027;26.64;28.04;30,7;BCS1388054;7;2
009658;21.02.2021;13:43:32;Normalcharge  ;04.12.2018;FEY;;LION;49;14500;7200;192;4;57;59;8400;3000;3722;3721;1;13001;23.24;25.34;27,5;BCS1388054;2;17
009658;21.02.2021;19:27:00;Stop          ;04.12.2018;FEY;;LION;49;14500;7200;224;4;97;100;8400;;4155;4156;1;13001;26.94;28.44;31,1;BCS1388054;2;17
009658;04.04.2021;11:50:28;Normalcharge  ;04.12.2018;FEY;;LION;49;14500;7200;224;4;96;99;8400;;4130;4130;1;13002;25.14;26.14;27,9;BCS1388054;3;2
009658;04.04.2021;11:51:43;Stop           ;04.12.2018;FEY;;LION;49;14500;7200;224;4;96;99;8400;;4130;4130;1;12797;25.14;26.54;28,6;BCS1388054;3;2
009658;22.08.2021;11:37:25;Normalcharge  ;04.12.2018;FEY;;LION;49;14500;7200;192;4;92;95;8400;3000;4079;4079;1;12989;20.94;28.44;31,9;BCS1388054;4;2
009658;22.08.2021;11:38:13;Stop          ;04.12.2018;FEY;;LION;49;14500;7200;128;4;92;95;8400;3000;4140;4114;1;12640;21.04;30.54;32,1;BCS1388054;4;2
009658;12.10.2021;12:58:56;Normalcharge  ;04.12.2018;FEY;;LION;49;14500;7200;192;4;90;93;8400;3000;4065;4065;1;13006;23.64;27.74;28,5;BCS1388054;6;11
009658;12.10.2021;12:59:25;Stop          ;04.12.2018;FEY;;LION;49;14500;7200;192;4;90;93;8400;3000;4065;4065;1;12973;23.74;28.64;28,6;BCS1388054;6;11
009658;14.10.2021;12:40:03;Normalcharge  ;04.12.2018;FEY;;LION;49;14500;7200;192;4;77;80;8400;3000;3934;3933;1;13006;25.84;26.24;27,9;BCS1388054;3;5
009658;14.10.2021;12:41:32;Stop           ;04.12.2018;FEY;;LION;49;14500;7200;128;4;77;80;8400;3000;4026;3976;1;12614;25.94;29.34;28,4;BCS1388054;3;5