Folder: Battery_sort_V2/reader/backup_20220209/Batterieverzeichnis_new (part 3)

File: 009678.txt
Serialnumber ; Date ; Time ; Action ; Date of Manufacture ; Manufacturer ; Battery Name ; Device-Chemistry ; Specification-Info ; Design-Capacity [mAh] ; Design-Voltage [mV] ; Battery Status ; Cycle Count ; SOC [%] ; Relativ SOC[%] ; Desired Voltage [mV]; Desired Current [mA]; Cell Voltage 1 [mV] ; Cell Voltage 2 [mV] ; Max_Error [%] ; Busvoltage[mV] ; Battery Temperature [°C] ; Charger Temperature [°C] ; Batterysystem ; Case ; PLace
009678;10.12.2019;15:28:33;Charge to 30% ;03.12.2018;FEY;;LION;49;14500;7200;224;47;93;99;8400;;4109;4108;1;13000;23.34;27.04;27,1;BCS1388054;1;8
009678;10.12.2019;20:42:16;Stop          ;03.12.2018;FEY;;LION;49;14500;7200;192;47;29;30;8400;3000;3554;3554;1;13000;32.94;35.54;34,1;BCS1388054;1;8
009678;11.12.2019;08:48:18;Fastcharge    ;03.12.2018;FEY;;LION;49;14500;7200;192;47;29;30;8400;3000;3568;3568;1;13000;26.04;28.84;31,9;BCS1388054;1;8
009678;11.12.2019;13:40:21;Stop          ;03.12.2018;FEY;;LION;49;14500;7200;224;47;95;100;8400;;4162;4163;1;13000;29.94;31.04;32,4;BCS1388054;1;8
009678;11.12.2019;15:45:57;Charge to 30% ;03.12.2018;FEY;;LION;49;14500;7200;224;47;97;100;8400;;4153;4153;1;12999;26.94;29.14;31,5;BCS1388054;1;8
009678;11.12.2019;15:46:00;Stop          ;03.12.2018;FEY;;LION;49;14500;7200;224;47;97;100;8400;;4153;4153;1;12999;26.94;29.14;31,5;BCS1388054;1;8
009678;11.12.2019;15:46:13;Charge to 10% ;03.12.2018;FEY;;LION;49;14500;7200;224;47;97;100;8400;;4153;4153;1;13000;26.94;29.14;31,5;BCS1388054;1;8
009678;11.12.2019;22:50:20;Stop          ;03.12.2018;FEY;;LION;49;14500;7200;192;49;10;10;8400;3000;3352;3352;1;13000;33.74;34.04;33,4;BCS1388054;1;8
009678;12.12.2019;08:44:40;Normalcharge  ;03.12.2018;FEY;;LION;49;14500;7200;192;49;9;9;8400;3000;3364;3364;1;12999;26.24;29.04;31,9;BCS1388054;1;8
009678;12.12.2019;16:39:22;Stop          ;03.12.2018;FEY;;LION;49;14500;7200;224;49;97;100;8400;;4163;4164;1;12999;29.04;30.94;31,7;BCS1388054;1;8
009678;13.12.2019;10:47:47;Charge to 10% ;03.12.2018;FEY;;LION;49;14500;7200;224;49;96;100;8400;;4148;4148;1;13000;26.34;29.14;32,0;BCS1388054;1;8
009678;13.12.2019;15:41:58;Stop          ;03.12.2018;FEY;;LION;49;14500;7200;192;49;35;37;8400;3000;3504;3554;1;13628;32.44;39.14;34,6;BCS1388054;1;8
009678;13.12.2019;15:42:01;Cycle         ;03.12.2018;FEY;;LION;49;14500;7200;192;49;35;37;8400;3000;3504;3554;1;13627;32.44;39.14;34,6;BCS1388054;1;8
009678;14.12.2019;22:41:25;Stop          ;03.12.2018;FEY;;LION;49;14500;7200;224;51;94;100;8400;;4152;4153;1;13000;26.44;28.94;31,9;BCS1388054;1;8
009678;16.12.2019;07:43:03;Charge to 10% ;03.12.2018;FEY;;LION;49;14500;7200;224;51;93;100;8400;;4146;4147;1;12998;26.04;28.54;31,9;BCS1388054;1;8
009678;16.12.2019;14:36:13;Stop          ;03.12.2018;FEY;;LION;49;14500;7200;192;52;10;10;8400;3000;3363;3364;1;13000;32.44;33.34;32,4;BCS1388054;1;8
009678;16.12.2019;14:44:00;Charge to 90% ;03.12.2018;FEY;;LION;49;14500;7200;192;52;10;10;8400;3000;3367;3368;1;13000;31.94;31.64;31,7;BCS1388054;1;8
009678;16.12.2019;20:50:03;Stop          ;03.12.2018;FEY;;LION;49;14500;7200;192;52;85;90;8400;3000;4064;4066;1;13001;31.74;33.04;31,7;BCS1388054;1;8
009678;17.12.2019;08:37:36;Fastcharge    ;03.12.2018;FEY;;LION;49;14500;7200;192;52;85;90;8400;3000;4048;4050;1;12999;26.14;28.74;31,6;BCS1388054;1;8
009678;17.12.2019;10:31:11;Stop          ;03.12.2018;FEY;;LION;49;14500;7200;224;52;96;100;8400;;4161;4162;1;13000;27.64;29.94;31,4;BCS1388054;1;8
009678;17.12.2019;13:38:19;Charge to 10% ;03.12.2018;FEY;;LION;49;14500;7200;224;52;96;100;8400;;4149;4150;1;12999;26.44;28.74;30,8;BCS1388054;1;8
009678;17.12.2019;20:33:50;Stop          ;03.12.2018;FEY;;LION;49;14500;7200;192;53;10;10;8400;3000;3360;3360;1;12999;33.74;34.64;34,2;BCS1388054;1;8
009678;18.12.2019;08:31:14;Fastcharge    ;03.12.2018;FEY;;LION;49;14500;7200;192;53;10;10;8400;3000;3372;3373;1;13000;26.24;28.84;31,6;BCS1388054;1;8
009678;18.12.2019;14:28:33;Stop          ;03.12.2018;FEY;;LION;49;14500;7200;224;53;96;100;8400;;4162;4161;1;13000;30.04;30.94;31,9;BCS1388054;1;8
009678;19.12.2019;08:23:45;Charge to 60% ;03.12.2018;FEY;;LION;49;14500;7200;224;53;97;100;8400;;4149;4148;1;12999;26.14;28.74;31,5;BCS1388054;1;8
009678;19.12.2019;11:29:32;Stop          ;03.12.2018;FEY;;LION;49;14500;7200;192;53;58;60;8400;3000;3752;3751;1;13000;33.34;38.64;34,9;BCS1388054;1;8
009678;19.12.2019;12:16:33;Cycle         ;03.12.2018;FEY;;LION;49;14500;7200;192;53;58;60;8400;3000;3776;3774;1;13000;30.24;30.74;32,7;BCS1388054;1;8
009678;20.12.2019;17:26:19;Stop          ;03.12.2018;FEY;;LION;49;14500;7200;224;55;94;100;8400;;4151;4152;1;13001;26.44;28.64;31,2;BCS1388054;1;8
009678;06.01.2020;06:34:38;Charge to 60% ;03.12.2018;FEY;;LION;49;14500;7200;224;55;93;99;8400;;4122;4122;1;13001;26.24;28.74;31,9;BCS1388054;1;8
009678;06.01.2020;09:30:29;Stop          ;03.12.2018;FEY;;LION;49;14500;7200;192;55;57;60;8400;3000;3752;3751;1;13000;32.54;37.74;33,9;BCS1388054;1;8
009678;06.01.2020;09:50:27;Fastcharge    ;03.12.2018;FEY;;LION;49;14500;7200;192;55;57;60;8400;3000;3773;3773;1;13001;31.24;31.34;32,6;BCS1388054;1;8
009678;06.01.2020;13:07:36;Stop          ;03.12.2018;FEY;;LION;49;14500;7200;224;55;95;100;8400;;4163;4164;1;13001;29.44;30.94;31,7;BCS1388054;1;8

File: 009684.txt
Serialnumber ; Date ; Time ; Action ; Date of Manufacture ; Manufacturer ; Battery Name ; Device-Chemistry ; Specification-Info ; Design-Capacity [mAh] ; Design-Voltage [mV] ; Battery Status ; Cycle Count ; SOC [%] ; Relativ SOC[%] ; Desired Voltage [mV]; Desired Current [mA]; Cell Voltage 1 [mV] ; Cell Voltage 2 [mV] ; Max_Error [%] ; Busvoltage[mV] ; Battery Temperature [°C] ; Charger Temperature [°C] ; Batterysystem ; Case ; PLace
009684;07.02.2021;08:46:42;Normalcharge  ;03.12.2018;FEY;;LION;49;14500;7200;192;4;96;98;8400;;4119;4119;1;13005;23.04;25.84;29,2;BCS1388054;1;7
009684;07.02.2021;11:52:07;Stop          ;03.12.2018;FEY;;LION;49;14500;7200;192;4;96;98;8400;;4118;4118;1;13005;25.24;27.04;29,7;BCS1388054;1;7
009684;03.03.2021;08:17:29;Normalcharge  ;03.12.2018;FEY;;LION;49;14500;7200;192;4;88;90;8400;3000;4043;4043;1;13000;22.54;23.64;23,5;BCS1388054;4;3
009684;03.03.2021;10:32:46;Stop          ;03.12.2018;FEY;;LION;49;14500;7200;224;4;98;100;8400;;4155;4155;1;12993;27.44;30.34;32,0;BCS1388054;4;3
009684;04.04.2021;11:50:39;Normalcharge  ;03.12.2018;FEY;;LION;49;14500;7200;192;5;54;55;8400;3000;3702;3701;1;13006;24.34;26.34;28,1;BCS1388054;1;7
009684;04.04.2021;11:51:54;Stop          ;03.12.2018;FEY;;LION;49;14500;7200;128;5;54;56;8400;3000;3792;3742;1;12581;24.34;29.04;28,8;BCS1388054;1;7
009684;05.04.2021;09:37:37;Charge to 60% ;03.12.2018;FEY;;LION;49;14500;7200;192;5;54;56;8400;3000;3705;3704;1;13001;24.54;25.74;26,0;BCS1388054;1;18
009684;05.04.2021;10:01:53;Stop          ;03.12.2018;FEY;;LION;49;14500;7200;192;5;58;60;8400;3000;3765;3764;1;12998;26.44;28.94;31,2;BCS1388054;1;18
009684;22.08.2021;11:07:56;Normalcharge  ;03.12.2018;FEY;;LION;49;14500;7200;192;5;45;46;8400;3000;3624;3623;1;12981;21.64;30.24;32,0;BCS1388054;2;15
009684;22.08.2021;11:08:29;Stop          ;03.12.2018;FEY;;LION;49;14500;7200;128;5;45;46;8400;3000;3691;3651;1;12557;21.74;31.44;32,4;BCS1388054;2;15
009684;25.08.2021;08:15:02;Charge to 60% ;03.12.2018;FEY;;LION;49;14500;7200;192;5;45;46;8400;3000;3626;3625;1;12993;29.64;31.94;33,2;BCS1388054;5;14
009684;25.08.2021;13:03:31;Stop          ;03.12.2018;FEY;;LION;49;14500;7200;192;5;58;60;8400;3000;3737;3736;1;12991;32.14;34.94;36,6;BCS1388054;5;14
009684;28.12.2021;09:01:33;Normalcharge  ;03.12.2018;FEY;;LION;49;14500;7200;192;5;41;42;8400;3000;3604;3603;1;13017;23.34;24.24;25,4;BCS1388054;5;9
009684;28.12.2021;09:02:46;Stop          ;03.12.2018;FEY;;LION;49;14500;7200;128;5;42;43;8400;3000;3693;3644;1;12665;23.34;26.94;26,0;BCS1388054;5;9

File: 009694.txt
Serialnumber ; Date ; Time ; Action ; Date of Manufacture ; Manufacturer ; Battery Name ; Device-Chemistry ; Specification-Info ; Design-Capacity [mAh] ; Design-Voltage [mV] ; Battery Status ; Cycle Count ; SOC [%] ; Relativ SOC[%] ; Desired Voltage [mV]; Desired Current [mA]; Cell Voltage 1 [mV] ; Cell Voltage 2 [mV] ; Max_Error [%] ; Busvoltage[mV] ; Battery Temperature [°C] ; Charger Temperature [°C] ; Batterysystem ; Case ; PLace
009694;10.12.2019;15:28:48;Ladung auf 30% ;04.12.2018;FEY;;LION;49;14500;7200;224;54;93;99;8400;;4130;4130;1;13016;23.14;23.64;27,1;BCS1388054;3;17
009694;10.12.2019;20:47:21;Stop           ;04.12.2018;FEY;;LION;49;14500;7200;192;55;29;30;8400;3000;3563;3563;1;13014;34.04;33.94;33,5;BCS1388054;3;17
009694;11.12.2019;08:48:36;Fastcharge    ;04.12.2018;FEY;;LION;49;14500;7200;192;55;29;30;8400;3000;3569;3570;1;13013;26.74;27.24;31,9;BCS1388054;3;17
009694;11.12.2019;13:39:41;Stop           ;04.12.2018;FEY;;LION;49;14500;7200;224;55;94;100;8400;;4159;4159;1;13013;30.84;30.24;32,5;BCS1388054;3;17
009694;11.12.2019;15:46:24;Ladung auf 10% ;04.12.2018;FEY;;LION;49;14500;7200;224;55;95;99;8400;;4152;4152;1;13014;27.64;27.94;31,4;BCS1388054;3;17
009694;11.12.2019;22:48:44;Stop           ;04.12.2018;FEY;;LION;49;14500;7200;192;56;10;10;8400;3000;3362;3363;1;13014;34.74;34.04;33,6;BCS1388054;3;17
009694;12.12.2019;08:44:58;Normalcharge  ;04.12.2018;FEY;;LION;49;14500;7200;192;56;9;10;8400;3000;3369;3370;1;13014;26.84;27.54;31,9;BCS1388054;3;17
009694;12.12.2019;16:39:24;Stop           ;04.12.2018;FEY;;LION;49;14500;7200;224;56;96;100;8400;;4158;4158;1;13014;29.84;29.74;31,7;BCS1388054;3;17
009694;13.12.2019;10:47:57;Ladung auf 10% ;04.12.2018;FEY;;LION;49;14500;7200;224;56;95;100;8400;;4147;4147;1;13013;26.94;27.54;32,0;BCS1388054;3;17
009694;13.12.2019;15:42:18;Stop           ;04.12.2018;FEY;;LION;49;14500;7200;192;57;34;36;8400;3000;3499;3549;1;13566;33.74;39.74;34,6;BCS1388054;3;17
009694;13.12.2019;15:42:20;Cycle          ;04.12.2018;FEY;;LION;49;14500;7200;192;57;34;36;8400;3000;3499;3549;1;13012;33.74;39.74;34,6;BCS1388054;3;17
009694;14.12.2019;22:36:33;Stop           ;04.12.2018;FEY;;LION;49;14500;7200;224;58;93;100;8400;;4151;4151;1;13015;27.14;27.44;31,6;BCS1388054;3;17
009694;16.12.2019;07:43:10;Ladung auf 10% ;04.12.2018;FEY;;LION;49;14500;7200;224;58;94;100;8400;;4145;4145;1;13014;26.64;26.84;31,9;BCS1388054;3;17
009694;16.12.2019;14:34:27;Stop           ;04.12.2018;FEY;;LION;49;14500;7200;192;59;10;10;8400;3000;3366;3366;1;13014;33.64;33.34;32,5;BCS1388054;3;17
009694;16.12.2019;14:44:07;Ladung auf 90% ;04.12.2018;FEY;;LION;49;14500;7200;192;59;10;10;8400;3000;3368;3368;1;13015;32.84;31.54;31,7;BCS1388054;3;17
009694;16.12.2019;20:48:39;Stop           ;04.12.2018;FEY;;LION;49;14500;7200;192;59;84;90;8400;3000;4056;4057;1;13015;32.54;32.34;31,9;BCS1388054;3;17
009694;17.12.2019;08:37:45;Fastcharge    ;04.12.2018;FEY;;LION;49;14500;7200;192;59;84;90;8400;3000;4047;4047;1;13015;26.74;27.24;31,5;BCS1388054;3;17
009694;17.12.2019;10:30:44;Stop           ;04.12.2018;FEY;;LION;49;14500;7200;224;59;94;100;8400;;4160;4160;1;13015;28.54;29.34;31,4;BCS1388054;3;17
009694;17.12.2019;13:38:28;Ladung auf 10% ;04.12.2018;FEY;;LION;49;14500;7200;224;59;94;100;8400;;4148;4148;1;13014;27.14;27.44;30,8;BCS1388054;3;17
009694;17.12.2019;20:32:04;Stop           ;04.12.2018;FEY;;LION;49;14500;7200;192;60;10;10;8400;3000;3365;3366;1;13014;34.94;34.74;34,6;BCS1388054;3;17
009694;18.12.2019;08:31:22;Fastcharge    ;04.12.2018;FEY;;LION;49;14500;7200;192;60;10;10;8400;3000;3374;3375;1;13015;26.84;27.44;31,6;BCS1388054;3;17
009694;18.12.2019;14:26:33;Stop           ;04.12.2018;FEY;;LION;49;14500;7200;224;60;94;100;8400;;4159;4159;1;13014;30.94;30.34;32,5;BCS1388054;3;17
009694;19.12.2019;08:23:54;Ladung auf 60% ;04.12.2018;FEY;;LION;49;14500;7200;224;60;95;100;8400;;4148;4148;1;13015;26.74;27.24;31,6;BCS1388054;3;17
009694;19.12.2019;11:28:29;Stop           ;04.12.2018;FEY;;LION;49;14500;7200;192;61;57;60;8400;3000;3765;3765;1;13013;34.74;36.34;35,1;BCS1388054;3;17
009694;19.12.2019;12:16:41;Cycle          ;04.12.2018;FEY;;LION;49;14500;7200;192;61;57;60;8400;3000;3777;3777;1;13014;31.34;30.04;32,7;BCS1388054;3;17
009694;20.12.2019;17:23:28;Stop           ;04.12.2018;FEY;;LION;49;14500;7200;224;62;93;100;8400;;4151;4151;1;13014;27.14;27.54;31,9;BCS1388054;3;17
009694;06.01.2020;06:34:46;Ladung auf 60% ;04.12.2018;FEY;;LION;49;14500;7200;224;62;92;99;8400;;4122;4122;1;13015;26.84;27.34;31,9;BCS1388054;3;17
009694;06.01.2020;09:29:20;Stop           ;04.12.2018;FEY;;LION;49;14500;7200;192;62;57;60;8400;3000;3764;3764;1;13013;33.94;35.74;34,2;BCS1388054;3;17
009694;06.01.2020;09:50:34;Fastcharge    ;04.12.2018;FEY;;LION;49;14500;7200;192;62;57;60;8400;3000;3774;3775;1;13014;32.44;30.94;32,7;BCS1388054;3;17
009694;06.01.2020;13:06:26;Stop           ;04.12.2018;FEY;;LION;49;14500;7200;224;62;94;100;8400;;4159;4160;1;13016;30.44;30.14;32,1;BCS1388054;3;17

File: 009712.txt
Serialnumber ; Date ; Time ; Action ; Date of Manufacture ; Manufacturer ; Battery Name ; Device-Chemistry ; Specification-Info ; Design-Capacity [mAh] ; Design-Voltage [mV] ; Battery Status ; Cycle Count ; SOC [%] ; Relativ SOC[%] ; Desired Voltage [mV]; Desired Current [mA]; Cell Voltage 1 [mV] ; Cell Voltage 2 [mV] ; Max_Error [%] ; Busvoltage[mV] ; Battery Temperature [°C] ; Charger Temperature [°C] ; Batterysystem ; Case ; PLace
009712;29.11.2020;04:25:09;Cycle         ;04.12.2018;FEY;;LION;49;14500;7200;192;4;68;69;8400;3000;3845;3846;1;12995;25.14;25.64;25,6;BCS1388054;1;2
009712;12.01.2021;04:16:00;Charge to 90% ;04.12.2018;FEY;;LION;49;14500;7200;224;5;95;99;8400;;4128;4129;1;13004;22.94;17.04;23,0;BCS1388054;1;15
009712;12.01.2021;04:16:03;Stop          ;04.12.2018;FEY;;LION;49;14500;7200;224;5;95;99;8400;;4128;4129;1;13005;22.94;23.84;23,0;BCS1388054;1;15
009712;12.01.2021;04:17:15;Charge to 90% ;04.12.2018;FEY;;LION;49;14500;7200;224;5;95;99;8400;;4128;4128;1;13003;23.04;24.64;23,5;BCS1388054;1;15
009712;12.01.2021;04:55:18;Stop          ;04.12.2018;FEY;;LION;49;14500;7200;192;5;83;90;8400;3000;4028;4029;1;12994;26.74;36.74;31,7;BCS1388054;1;15
009712;12.01.2021;05:21:33;Cycle         ;04.12.2018;FEY;;LION;49;14500;7200;192;5;83;90;8400;3000;4050;4051;1;12996;26.74;29.64;30,6;BCS1388054;1;15
009712;13.01.2021;08:18:34;Stop          ;04.12.2018;FEY;;LION;49;14500;7200;224;7;95;100;8400;;4155;4155;1;12995;26.64;29.44;30,7;BCS1388054;1;15
009712;21.02.2021;13:43:19;Normalcharge  ;04.12.2018;FEY;;LION;49;14500;7200;192;7;54;57;8400;3000;3720;3720;1;13004;23.74;24.64;27,5;BCS1388054;1;13
009712;22.02.2021;17:08:49;Stop          ;04.12.2018;FEY;;LION;49;14500;7200;224;7;94;100;8400;;4148;4147;1;13004;26.14;26.74;30,0;BCS1388054;1;13
009712;06.04.2021;08:38:50;Normalcharge  ;04.12.2018;FEY;;LION;49;14500;7200;224;7;92;99;8400;;4128;4127;1;13008;20.74;24.44;28,1;BCS1388054;3;4
009712;06.04.2021;08:39:42;Stop           ;04.12.2018;FEY;;LION;49;14500;7200;224;7;92;99;8400;;4128;4127;1;13007;20.84;24.84;28,2;BCS1388054;3;4
009712;08.04.2021;07:58:01;Normalcharge  ;04.12.2018;FEY;;LION;49;14500;7200;224;7;92;99;8400;;4128;4127;1;13008;25.24;24.74;26,4;BCS1388054;3;4
009712;08.04.2021;07:59:40;Stop           ;04.12.2018;FEY;;LION;49;14500;7200;224;7;92;99;8400;;4127;4127;1;13008;25.24;25.54;26,8;BCS1388054;3;4
009712;08.04.2021;10:35:05;Normalcharge  ;04.12.2018;FEY;;LION;49;14500;7200;224;7;92;99;8400;;4128;4127;1;13009;25.44;25.04;28,1;BCS1388054;3;4
009712;08.04.2021;10:36:56;Stop           ;04.12.2018;FEY;;LION;49;14500;7200;224;7;92;99;8400;;4128;4127;1;13007;25.44;25.94;29,0;BCS1388054;3;4
009712;18.04.2021;08:33:50;Normalcharge  ;04.12.2018;FEY;;LION;49;14500;7200;192;7;92;98;8400;;4124;4123;1;13006;26.14;26.14;27,8;BCS1388054;3;4
009712;18.04.2021;08:33:58;Stop           ;04.12.2018;FEY;;LION;49;14500;7200;192;7;92;98;8400;;4124;4123;1;13006;26.14;26.14;27,9;BCS1388054;3;4
009712;04.08.2021;07:24:50;Normalcharge  ;04.12.2018;FEY;;LION;49;14500;7200;192;7;90;96;8400;;4092;4092;1;12999;30.34;30.34;31,6;BCS1388054;3;4
009712;04.08.2021;07:25:37;Stop           ;04.12.2018;FEY;;LION;49;14500;7200;192;7;90;96;8400;;4092;4092;1;12998;30.34;30.74;31,7;BCS1388054;3;4
009712;22.08.2021;11:37:12;Normalcharge  ;04.12.2018;FEY;;LION;49;14500;7200;192;7;90;96;8400;;4088;4087;1;13025;23.44;29.74;31,9;BCS1388054;7;1
009712;22.08.2021;11:37:48;Stop          ;04.12.2018;FEY;;LION;49;14500;7200;192;7;90;96;8400;;4088;4088;1;13008;23.54;30.14;31,9;BCS1388054;7;1
009712;14.10.2021;12:39:57;Normalcharge  ;04.12.2018;FEY;;LION;49;14500;7200;192;7;87;93;8400;3000;4074;4074;1;13004;24.94;27.34;27,9;BCS1388054;2;5
009712;14.10.2021;12:41:24;Stop          ;04.12.2018;FEY;;LION;49;14500;7200;128;7;87;93;8400;3000;4137;4113;1;12570;25.04;29.84;28,2;BCS1388054;2;5
009712;01.11.2021;09:52:11;Normalcharge  ;04.12.2018;FEY;;LION;49;14500;7200;192;7;86;91;8400;3000;4046;4046;1;13005;24.04;24.94;26,4;BCS1388054;3;9
009712;01.11.2021;09:53:26;Stop           ;04.12.2018;FEY;;LION;49;14500;7200;128;7;86;91;8400;3000;4119;4089;1;12608;24.14;27.54;27,1;BCS1388054;3;9
009712;01.11.2021;10:02:09;Normalcharge  ;04.12.2018;FEY;;LION;49;14500;7200;192;7;86;91;8400;3000;4048;4048;1;12998;24.34;27.14;29,5;BCS1388054;3;9
009712;01.11.2021;10:03:20;Stop           ;04.12.2018;FEY;;LION;49;14500;7200;128;7;86;91;8400;3000;4118;4090;1;12599;24.44;29.14;29,5;BCS1388054;3;9
009712;28.12.2021;09:01:29;Normalcharge  ;04.12.2018;FEY;;LION;49;14500;7200;192;7;70;75;8400;3000;3891;3891;1;13003;23.74;23.94;25,4;BCS1388054;4;6
009712;28.12.2021;09:02:38;Stop          ;04.12.2018;FEY;;LION;49;14500;7200;128;7;70;75;8400;3000;3984;3938;1;12585;23.74;25.94;25,8;BCS1388054;4;6

File: 009728.txt
Serialnumber ; Date ; Time ; Action ; Date of Manufacture ; Manufacturer ; Battery Name ; Device-Chemistry ; Specification-Info ; Design-Capacity [mAh] ; Design-Voltage [mV] ; Battery Status ; Cycle Count ; SOC [%] ; Relativ SOC[%] ; Desired Voltage [mV]; Desired Current [mA]; Cell Voltage 1 [mV] ; Cell Voltage 2 [mV] ; Max_Error [%] ; Busvoltage[mV] ; Battery Temperature [°C] ; Charger Temperature [°C] ; Batterysystem ; Case ; PLace
009728;07.12.2020;04:14:17;Cycle         ;04.12.2018;FEY;;LION;49;14500;7200;224;2;98;99;8400;;4124;4125;1;13001;26.04;27.14;30,3;BCS1388054;1;17
009728;08.12.2020;16:19:38;Stop          ;04.12.2018;FEY;;LION;49;14500;7200;224;4;97;100;8400;;4153;4156;1;13000;27.64;28.44;31,9;BCS1388054;1;17
009728;03.03.2021;08:17:35;Normalcharge  ;04.12.2018;FEY;;LION;49;14500;7200;192;4;72;74;8400;3000;3885;3886;1;13014;23.54;23.74;23,6;BCS1388054;5;16
009728;03.03.2021;11:26:36;Stop          ;04.12.2018;FEY;;LION;49;14500;7200;224;4;97;100;8400;;4161;4163;1;13009;29.34;29.84;31,5;BCS1388054;5;16
009728;06.04.2021;08:38:46;Normalcharge  ;04.12.2018;FEY;;LION;49;14500;7200;224;4;96;99;8400;;4133;4134;1;13012;21.04;25.04;28,1;BCS1388054;2;16
009728;06.04.2021;08:39:36;Stop          ;04.12.2018;FEY;;LION;49;14500;7200;224;4;96;99;8400;;4133;4134;1;13009;21.04;25.34;28,2;BCS1388054;2;16
009728;08.04.2021;07:57:57;Normalcharge  ;04.12.2018;FEY;;LION;49;14500;7200;224;4;96;99;8400;;4132;4134;1;13012;25.64;25.24;26,3;BCS1388054;2;16
009728;08.04.2021;07:59:45;Stop          ;04.12.2018;FEY;;LION;49;14500;7200;224;4;96;99;8400;;4132;4134;1;13010;25.64;26.04;26,8;BCS1388054;2;16
009728;08.04.2021;10:35:00;Normalcharge  ;04.12.2018;FEY;;LION;49;14500;7200;224;4;96;99;8400;;4132;4134;1;13012;26.04;25.64;28,1;BCS1388054;2;16
009728;08.04.2021;10:36:53;Stop          ;04.12.2018;FEY;;LION;49;14500;7200;224;4;96;99;8400;;4132;4134;1;13008;26.14;26.64;28,9;BCS1388054;2;16
009728;18.04.2021;08:33:36;Normalcharge  ;04.12.2018;FEY;;LION;49;14500;7200;224;4;95;99;8400;;4128;4130;1;13010;26.54;26.64;27,7;BCS1388054;2;16
009728;18.04.2021;08:33:44;Stop          ;04.12.2018;FEY;;LION;49;14500;7200;224;4;95;99;8400;;4128;4130;1;13010;26.54;26.74;27,8;BCS1388054;2;16
009728;04.08.2021;07:24:55;Normalcharge  ;04.12.2018;FEY;;LION;49;14500;7200;192;4;93;96;8400;;4095;4096;1;13001;30.84;31.04;31,5;BCS1388054;2;16
009728;04.08.2021;07:25:47;Stop          ;04.12.2018;FEY;;LION;49;14500;7200;192;4;93;96;8400;;4095;4096;1;13000;30.84;31.34;31,9;BCS1388054;2;16
009728;22.08.2021;11:08:09;Normalcharge  ;04.12.2018;FEY;;LION;49;14500;7200;192;4;67;70;8400;3000;3845;3847;1;12991;23.74;28.64;32,1;BCS1388054;5;13
009728;22.08.2021;11:08:42;Stop          ;04.12.2018;FEY;;LION;49;14500;7200;128;4;67;70;8400;3000;3870;3858;1;12835;23.74;29.94;32,5;BCS1388054;5;13
009728;14.10.2021;12:39:58;Normalcharge  ;04.12.2018;FEY;;LION;49;14500;7200;192;5;43;45;8400;3000;3617;3618;1;13004;25.14;26.14;27,9;BCS1388054;2;16
009728;14.10.2021;12:41:25;Stop          ;04.12.2018;FEY;;LION;49;14500;7200;128;5;43;45;8400;3000;3704;3658;1;12553;25.24;29.34;28,2;BCS1388054;2;16
009728;01.11.2021;09:52:15;Normalcharge  ;04.12.2018;FEY;;LION;49;14500;7200;192;5;43;44;8400;3000;3616;3617;1;13006;26.14;25.94;26,3;BCS1388054;2;16
009728;01.11.2021;09:53:18;Stop          ;04.12.2018;FEY;;LION;49;14500;7200;128;5;43;45;8400;3000;3701;3654;1;12499;26.24;28.44;26,8;BCS1388054;2;16
009728;01.11.2021;10:02:05;Normalcharge  ;04.12.2018;FEY;;LION;49;14500;7200;192;5;43;45;8400;3000;3618;3619;1;12998;26.34;27.54;29,5;BCS1388054;2;16
009728;01.11.2021;10:03:24;Stop          ;04.12.2018;FEY;;LION;49;14500;7200;128;5;43;45;8400;3000;3706;3657;1;12492;26.34;30.04;29,3;BCS1388054;2;16
009728;01.11.2021;10:18:11;Normalcharge  ;04.12.2018;FEY;;LION;49;14500;7200;192;5;43;45;8400;3000;3620;3621;1;12995;26.54;26.94;28,4;BCS1388054;2;16
009728;01.11.2021;10:18:48;Stop          ;04.12.2018;FEY;;LION;49;14500;7200;128;5;43;45;8400;3000;3663;3638;1;12581;26.54;28.04;28,2;BCS1388054;2;16
009728;01.11.2021;10:28:53;Normalcharge  ;04.12.2018;FEY;;LION;49;14500;7200;192;5;43;45;8400;3000;3620;3621;1;13000;26.54;27.24;28,2;BCS1388054;2;16
009728;01.11.2021;10:29:00;Stop          ;04.12.2018;FEY;;LION;49;14500;7200;192;5;43;45;8400;3000;3620;3621;1;12986;26.54;27.34;28,4;BCS1388054;2;16
009728;01.11.2021;10:32:00;Charge to 60% ;04.12.2018;FEY;;LION;49;14500;7200;192;5;43;45;8400;3000;3620;3620;1;12999;26.64;21.84;29,7;BCS1388054;2;16
009728;01.11.2021;11:53:40;Stop          ;04.12.2018;FEY;;LION;49;14500;7200;192;5;57;60;8400;3000;3730;3732;1;12998;30.04;29.74;32,5;BCS1388054;2;16

File: 009757.txt
Serialnumber ; Date ; Time ; Action ; Date of Manufacture ; Manufacturer ; Battery Name ; Device-Chemistry ; Specification-Info ; Design-Capacity [mAh] ; Design-Voltage [mV] ; Battery Status ; Cycle Count ; SOC [%] ; Relativ SOC[%] ; Desired Voltage [mV]; Desired Current [mA]; Cell Voltage 1 [mV] ; Cell Voltage 2 [mV] ; Max_Error [%] ; Busvoltage[mV] ; Battery Temperature [°C] ; Charger Temperature [°C] ; Batterysystem ; Case ; PLace
009757;07.12.2020;04:14:32;Cycle         ;04.12.2018;FEY;;LION;49;14500;7200;192;2;94;98;8400;;4132;4130;1;13014;25.94;27.34;30,3;BCS1388054;5;18
009757;08.12.2020;16:20:01;Stop          ;04.12.2018;FEY;;LION;49;14500;7200;192;2;94;98;8400;;4130;4128;1;13013;27.74;28.94;31,7;BCS1388054;5;18
009757;07.02.2021;08:46:59;Normalcharge  ;04.12.2018;FEY;;LION;49;14500;7200;192;2;92;93;8400;3000;4086;4085;1;13000;23.64;26.64;29,2;BCS1388054;4;3
009757;07.02.2021;11:52:20;Stop          ;04.12.2018;FEY;;LION;49;14500;7200;224;2;99;100;8400;;4149;4148;1;12998;26.04;27.84;29,7;BCS1388054;4;3
009757;03.03.2021;08:17:35;Normalcharge  ;04.12.2018;FEY;;LION;49;14500;7200;192;2;78;80;8400;3000;3935;3934;1;13015;23.24;23.44;23,6;BCS1388054;5;4
009757;03.03.2021;11:26:36;Stop          ;04.12.2018;FEY;;LION;49;14500;7200;224;2;97;100;8400;;4155;4154;1;13009;28.34;29.34;31,5;BCS1388054;5;4
009757;04.04.2021;11:50:39;Normalcharge  ;04.12.2018;FEY;;LION;49;14500;7200;224;2;96;99;8400;;4134;4133;1;12992;25.04;26.04;28,1;BCS1388054;1;5
009757;04.04.2021;11:51:54;Stop          ;04.12.2018;FEY;;LION;49;14500;7200;224;2;96;99;8400;;4133;4132;1;12558;25.14;26.44;28,8;BCS1388054;1;5
009757;22.08.2021;11:07:55;Normalcharge  ;04.12.2018;FEY;;LION;49;14500;7200;192;2;83;86;8400;3000;3979;3979;1;12996;22.34;31.14;32,0;BCS1388054;2;3
009757;22.08.2021;11:08:28;Stop          ;04.12.2018;FEY;;LION;49;14500;7200;128;2;83;86;8400;3000;4015;3997;1;12627;22.44;32.14;32,4;BCS1388054;2;3
009757;14.10.2021;12:39:58;Normalcharge  ;04.12.2018;FEY;;LION;49;14500;7200;192;2;79;82;8400;3000;3943;3942;1;12994;24.64;26.74;27,9;BCS1388054;2;17
009757;14.10.2021;12:41:25;Stop          ;04.12.2018;FEY;;LION;49;14500;7200;128;2;80;82;8400;3000;4040;3991;1;12541;24.74;30.54;28,2;BCS1388054;2;17
009757;01.11.2021;09:52:10;Normalcharge  ;04.12.2018;FEY;;LION;49;14500;7200;192;2;77;79;8400;3000;3918;3917;1;12994;24.34;25.34;26,4;BCS1388054;3;8
009757;01.11.2021;09:53:26;Stop           ;04.12.2018;FEY;;LION;49;14500;7200;128;2;77;80;8400;3000;4012;3963;1;12602;24.44;28.44;27,1;BCS1388054;3;8
009757;01.11.2021;10:02:09;Normalcharge  ;04.12.2018;FEY;;LION;49;14500;7200;192;2;77;80;8400;3000;3920;3920;1;12989;24.74;27.84;29,5;BCS1388054;3;8
009757;01.11.2021;10:03:20;Stop           ;04.12.2018;FEY;;LION;49;14500;7200;128;2;77;80;8400;3000;4015;3966;1;12591;24.84;30.14;29,5;BCS1388054;3;8