Folder: Battery_sort_V2/reader/backup_20220209/Batterieverzeichnis (part 3)

File: 009635.txt
Serialnumber ; Date ; Time ; Action ; Date of Manufacture ; Manufacturer ; Battery Name ; Device-Chemistry ; Specification-Info ; Design-Capacity [mAh] ; Design-Voltage [mV] ; Battery Status ; Cycle Count ; SOC [%] ; Relativ SOC[%] ; Desired Voltage [mV]; Desired Current [mA]; Cell Voltage 1 [mV] ; Cell Voltage 2 [mV] ; Max_Error [%] ; Busvoltage[mV] ; Battery Temperature [°C] ; Charger Temperature [°C] ; Batterysystem ; Case ; PLace
009635;10.12.2019;15:28:53;Charge to 30% ;04.12.2018;FEY;;LION;49;14500;7200;224;53;93;100;8400;;4129;4129;1;13021;22.14;24.74;27,1;BCS1388054;4;1
009635;10.12.2019;20:47:57;Stop          ;04.12.2018;FEY;;LION;49;14500;7200;192;54;29;30;8400;3000;3560;3559;1;13019;33.14;33.84;33,4;BCS1388054;4;1
009635;11.12.2019;08:48:41;Fastcharge    ;04.12.2018;FEY;;LION;49;14500;7200;192;54;29;30;8400;3000;3569;3569;1;13020;25.94;28.64;31,9;BCS1388054;4;1
009635;11.12.2019;13:42:44;Stop          ;04.12.2018;FEY;;LION;49;14500;7200;224;54;95;100;8400;;4161;4162;1;13020;29.34;30.54;31,9;BCS1388054;4;1
009635;11.12.2019;15:46:31;Charge to 10% ;04.12.2018;FEY;;LION;49;14500;7200;224;54;96;100;8400;;4153;4154;1;13019;26.74;28.94;31,4;BCS1388054;4;1
009635;11.12.2019;22:50:44;Stop          ;04.12.2018;FEY;;LION;49;14500;7200;192;55;10;10;8400;3000;3352;3352;1;13019;33.84;33.84;33,2;BCS1388054;4;1
009635;12.12.2019;08:45:03;Normalcharge  ;04.12.2018;FEY;;LION;49;14500;7200;192;55;9;10;8400;3000;3363;3363;1;13020;26.14;28.84;31,9;BCS1388054;4;1
009635;12.12.2019;16:41:48;Stop          ;04.12.2018;FEY;;LION;49;14500;7200;224;55;96;100;8400;;4160;4160;1;13018;28.64;30.04;31,5;BCS1388054;4;1
009635;13.12.2019;10:48:01;Charge to 10% ;04.12.2018;FEY;;LION;49;14500;7200;224;55;96;100;8400;;4148;4148;1;13020;26.14;28.84;32,0;BCS1388054;4;1
009635;13.12.2019;15:42:25;Stop          ;04.12.2018;FEY;;LION;49;14500;7200;192;56;35;37;8400;3000;3502;3553;1;13505;32.54;38.44;34,6;BCS1388054;4;1
009635;13.12.2019;15:42:27;Cycle         ;04.12.2018;FEY;;LION;49;14500;7200;192;56;35;37;8400;3000;3502;3553;1;13018;32.54;38.34;34,6;BCS1388054;4;1
009635;14.12.2019;22:44:28;Stop          ;04.12.2018;FEY;;LION;49;14500;7200;224;57;93;99;8400;;4151;4151;1;13020;26.24;28.84;32,0;BCS1388054;4;1
009635;16.12.2019;07:43:14;Charge to 10% ;04.12.2018;FEY;;LION;49;14500;7200;224;57;94;100;8400;;4145;4145;1;13020;25.94;28.34;31,9;BCS1388054;4;1
009635;16.12.2019;14:36:44;Stop          ;04.12.2018;FEY;;LION;49;14500;7200;192;58;10;10;8400;3000;3365;3365;1;13019;32.24;32.44;32,4;BCS1388054;4;1
009635;16.12.2019;14:44:13;Charge to 90% ;04.12.2018;FEY;;LION;49;14500;7200;192;58;10;10;8400;3000;3367;3367;1;13019;31.64;31.34;31,7;BCS1388054;4;1
009635;16.12.2019;20:50:27;Stop          ;04.12.2018;FEY;;LION;49;14500;7200;192;58;84;90;8400;3000;4060;4061;1;13019;31.24;31.74;31,6;BCS1388054;4;1
009635;17.12.2019;08:37:49;Fastcharge    ;04.12.2018;FEY;;LION;49;14500;7200;192;58;85;90;8400;3000;4049;4050;1;13019;26.04;28.64;31,6;BCS1388054;4;1
009635;17.12.2019;10:31:06;Stop          ;04.12.2018;FEY;;LION;49;14500;7200;224;58;95;100;8400;;4160;4160;1;13020;27.54;29.74;31,4;BCS1388054;4;1
009635;17.12.2019;13:38:32;Charge to 10% ;04.12.2018;FEY;;LION;49;14500;7200;224;58;95;100;8400;;4149;4149;1;13020;26.34;28.44;30,8;BCS1388054;4;1
009635;17.12.2019;20:34:28;Stop          ;04.12.2018;FEY;;LION;49;14500;7200;192;59;10;10;8400;3000;3365;3365;1;13019;33.84;34.04;34,1;BCS1388054;4;1
009635;18.12.2019;08:31:26;Fastcharge    ;04.12.2018;FEY;;LION;49;14500;7200;192;59;10;10;8400;3000;3374;3374;1;13020;26.14;28.64;31,6;BCS1388054;4;1
009635;18.12.2019;14:29:12;Stop          ;04.12.2018;FEY;;LION;49;14500;7200;224;59;95;100;8400;;4161;4162;1;13021;29.44;30.64;31,9;BCS1388054;4;1
009635;19.12.2019;08:23:58;Charge to 60% ;04.12.2018;FEY;;LION;49;14500;7200;224;59;96;100;8400;;4148;4148;1;13020;26.04;28.64;31,6;BCS1388054;4;1
009635;19.12.2019;11:30:18;Stop          ;04.12.2018;FEY;;LION;49;14500;7200;192;60;58;60;8400;3000;3770;3771;1;13019;33.64;35.04;34,6;BCS1388054;4;1
009635;19.12.2019;12:16:45;Cycle         ;04.12.2018;FEY;;LION;49;14500;7200;192;60;58;60;8400;3000;3782;3782;1;13021;29.94;31.04;32,7;BCS1388054;4;1
009635;20.12.2019;17:30:48;Stop          ;04.12.2018;FEY;;LION;49;14500;7200;224;61;94;100;8400;;4151;4151;1;13021;26.34;28.34;30,6;BCS1388054;4;1
009635;06.01.2020;06:34:50;Charge to 60% ;04.12.2018;FEY;;LION;49;14500;7200;192;61;93;98;8400;;4122;4122;1;13020;26.24;28.74;31,9;BCS1388054;4;1
009635;06.01.2020;09:30:33;Stop          ;04.12.2018;FEY;;LION;49;14500;7200;192;61;57;60;8400;3000;3769;3769;1;13020;32.84;34.34;33,7;BCS1388054;4;1
009635;06.01.2020;09:50:38;Fastcharge    ;04.12.2018;FEY;;LION;49;14500;7200;192;61;57;60;8400;3000;3780;3780;1;13021;31.24;31.64;32,7;BCS1388054;4;1
009635;06.01.2020;13:09:19;Stop          ;04.12.2018;FEY;;LION;49;14500;7200;224;61;94;100;8400;;4161;4162;1;13020;28.94;30.14;31,4;BCS1388054;4;1

File: 009636.txt
Serialnumber ; Date ; Time ; Action ; Date of Manufacture ; Manufacturer ; Battery Name ; Device-Chemistry ; Specification-Info ; Design-Capacity [mAh] ; Design-Voltage [mV] ; Battery Status ; Cycle Count ; SOC [%] ; Relativ SOC[%] ; Desired Voltage [mV]; Desired Current [mA]; Cell Voltage 1 [mV] ; Cell Voltage 2 [mV] ; Max_Error [%] ; Busvoltage[mV] ; Battery Temperature [°C] ; Charger Temperature [°C] ; Batterysystem ; Case ; PLace
009636;10.12.2019;15:28:41;Charge to 30% ;04.12.2018;FEY;;LION;49;14500;7200;224;46;92;99;8400;;4133;4132;1;13009;23.24;24.94;27,1;BCS1388054;2;17
009636;10.12.2019;20:48:37;Stop          ;04.12.2018;FEY;;LION;49;14500;7200;192;47;29;30;8400;3000;3560;3560;1;13008;33.64;34.34;33,2;BCS1388054;2;17
009636;11.12.2019;08:48:24;Fastcharge    ;04.12.2018;FEY;;LION;49;14500;7200;192;47;29;30;8400;3000;3568;3568;1;13007;26.54;28.34;31,9;BCS1388054;2;17
009636;11.12.2019;13:39:47;Stop          ;04.12.2018;FEY;;LION;49;14500;7200;224;47;95;100;8400;;4161;4161;1;13008;30.34;31.14;32,5;BCS1388054;2;17
009636;11.12.2019;15:46:18;Charge to 10% ;04.12.2018;FEY;;LION;49;14500;7200;224;47;96;100;8400;;4154;4154;1;13007;27.44;28.84;31,4;BCS1388054;2;17
009636;11.12.2019;22:49:04;Stop          ;04.12.2018;FEY;;LION;49;14500;7200;192;48;10;10;8400;3000;3351;3351;1;13007;34.54;35.14;33,6;BCS1388054;2;17
009636;12.12.2019;08:44:52;Normalcharge  ;04.12.2018;FEY;;LION;49;14500;7200;192;48;9;9;8400;3000;3362;3362;1;13007;26.74;28.64;31,9;BCS1388054;2;17
009636;12.12.2019;16:40:06;Stop          ;04.12.2018;FEY;;LION;49;14500;7200;224;48;96;100;8400;;4161;4161;1;13008;29.54;30.64;31,7;BCS1388054;2;17
009636;13.12.2019;10:47:50;Charge to 10% ;04.12.2018;FEY;;LION;49;14500;7200;224;48;96;100;8400;;4149;4149;1;13007;26.74;28.54;32,0;BCS1388054;2;17
009636;13.12.2019;15:42:08;Cycle         ;04.12.2018;FEY;;LION;49;14500;7200;192;49;34;36;8400;3000;3499;3551;1;13579;33.44;40.44;34,6;BCS1388054;2;17
009636;13.12.2019;15:42:08;Stop          ;04.12.2018;FEY;;LION;49;14500;7200;192;49;34;36;8400;3000;3499;3551;1;13579;33.44;40.44;34,6;BCS1388054;2;17
009636;14.12.2019;22:48:51;Stop          ;04.12.2018;FEY;;LION;49;14500;7200;224;50;93;100;8400;;4153;4154;1;13008;26.94;28.54;32,0;BCS1388054;2;17
009636;16.12.2019;07:43:06;Charge to 10% ;04.12.2018;FEY;;LION;49;14500;7200;224;50;94;100;8400;;4147;4148;1;13008;26.44;28.04;31,9;BCS1388054;2;17
009636;16.12.2019;14:37:54;Stop          ;04.12.2018;FEY;;LION;49;14500;7200;192;52;10;10;8400;3000;3364;3365;1;13009;33.14;33.24;32,4;BCS1388054;2;17
009636;16.12.2019;14:44:03;Charge to 90% ;04.12.2018;FEY;;LION;49;14500;7200;192;52;10;10;8400;3000;3366;3367;1;13008;32.64;32.24;31,9;BCS1388054;2;17
009636;16.12.2019;20:51:09;Stop          ;04.12.2018;FEY;;LION;49;14500;7200;192;52;84;90;8400;3000;4056;4056;1;13009;32.04;32.34;31,6;BCS1388054;2;17
009636;17.12.2019;08:37:41;Fastcharge    ;04.12.2018;FEY;;LION;49;14500;7200;192;52;84;90;8400;3000;4046;4047;1;13008;26.54;28.24;31,6;BCS1388054;2;17
009636;17.12.2019;10:30:36;Stop          ;04.12.2018;FEY;;LION;49;14500;7200;224;52;95;100;8400;;4164;4163;1;13009;28.34;30.54;31,5;BCS1388054;2;17
009636;17.12.2019;13:38:22;Charge to 10% ;04.12.2018;FEY;;LION;49;14500;7200;224;52;95;100;8400;;4152;4151;1;13009;26.94;28.44;30,8;BCS1388054;2;17
009636;17.12.2019;20:36:00;Stop          ;04.12.2018;FEY;;LION;49;14500;7200;192;53;10;10;8400;3000;3363;3362;1;13008;34.34;34.54;33,6;BCS1388054;2;17
009636;18.12.2019;08:31:17;Fastcharge    ;04.12.2018;FEY;;LION;49;14500;7200;192;53;10;10;8400;3000;3372;3372;1;13008;26.74;28.54;31,6;BCS1388054;2;17
009636;18.12.2019;14:28:27;Stop          ;04.12.2018;FEY;;LION;49;14500;7200;224;53;95;100;8400;;4162;4161;1;13009;30.44;31.04;32,0;BCS1388054;2;17
009636;19.12.2019;08:23:50;Charge to 60% ;04.12.2018;FEY;;LION;49;14500;7200;224;53;95;100;8400;;4150;4149;1;13008;26.54;28.34;31,5;BCS1388054;2;17
009636;19.12.2019;11:32:11;Stop          ;04.12.2018;FEY;;LION;49;14500;7200;192;53;58;60;8400;3000;3767;3768;1;13008;34.14;35.14;34,0;BCS1388054;2;17
009636;19.12.2019;12:16:37;Cycle         ;04.12.2018;FEY;;LION;49;14500;7200;192;53;58;60;8400;3000;3776;3778;1;13010;30.84;31.04;32,7;BCS1388054;2;17
009636;20.12.2019;17:35:47;Stop          ;04.12.2018;FEY;;LION;49;14500;7200;224;54;93;100;8400;;4153;4152;1;13008;26.84;28.34;31,1;BCS1388054;2;17
009636;06.01.2020;06:34:42;Charge to 60% ;04.12.2018;FEY;;LION;49;14500;7200;224;54;92;99;8400;;4123;4123;1;13009;26.64;28.34;31,9;BCS1388054;2;17
009636;06.01.2020;09:32:11;Stop          ;04.12.2018;FEY;;LION;49;14500;7200;192;55;57;60;8400;3000;3767;3769;1;13010;33.44;34.54;33,2;BCS1388054;2;17
009636;06.01.2020;09:50:30;Fastcharge    ;04.12.2018;FEY;;LION;49;14500;7200;192;55;57;60;8400;3000;3774;3777;1;13010;32.04;31.74;32,7;BCS1388054;2;17
009636;06.01.2020;13:08:34;Stop          ;04.12.2018;FEY;;LION;49;14500;7200;224;55;94;100;8400;;4160;4159;1;13010;29.84;30.74;31,6;BCS1388054;2;17

File: 009649.txt
Serialnumber ; Date ; Time ; Action ; Date of Manufacture ; Manufacturer ; Battery Name ; Device-Chemistry ; Specification-Info ; Design-Capacity [mAh] ; Design-Voltage [mV] ; Battery Status ; Cycle Count ; SOC [%] ; Relativ SOC[%] ; Desired Voltage [mV]; Desired Current [mA]; Cell Voltage 1 [mV] ; Cell Voltage 2 [mV] ; Max_Error [%] ; Busvoltage[mV] ; Battery Temperature [°C] ; Charger Temperature [°C] ; Batterysystem ; Case ; PLace
009649;07.12.2020;04:14:40;Cycle         ;04.12.2018;FEY;;LION;49;14500;7200;192;2;97;97;8400;;4118;4118;1;13026;25.74;28.24;30,3;BCS1388054;7;1
009649;08.12.2020;16:20:20;Stop          ;04.12.2018;FEY;;LION;49;14500;7200;192;2;97;97;8400;;4116;4117;1;13026;27.74;29.64;31,9;BCS1388054;7;1
009649;12.01.2021;04:17:33;Charge to 90% ;04.12.2018;FEY;;LION;49;14500;7200;192;2;96;96;8400;;4106;4106;1;13007;23.24;24.14;23,6;BCS1388054;4;7
009649;12.01.2021;04:57:16;Stop          ;04.12.2018;FEY;;LION;49;14500;7200;192;2;90;90;8400;3000;4050;4051;1;13002;27.14;30.44;31,6;BCS1388054;4;7
009649;12.01.2021;05:21:49;Cycle         ;04.12.2018;FEY;;LION;49;14500;7200;192;2;90;90;8400;3000;4053;4054;1;13003;27.34;28.94;30,4;BCS1388054;4;7
009649;13.01.2021;08:19:19;Stop          ;04.12.2018;FEY;;LION;49;14500;7200;224;4;98;100;8400;;4156;4156;1;13005;27.54;28.84;30,7;BCS1388054;4;7
009649;03.03.2021;08:17:35;Normalcharge  ;04.12.2018;FEY;;LION;49;14500;7200;192;4;74;76;8400;3000;3898;3898;1;13010;23.34;23.54;23,6;BCS1388054;5;11
009649;03.03.2021;11:26:36;Stop          ;04.12.2018;FEY;;LION;49;14500;7200;224;4;98;100;8400;;4159;4160;1;13003;28.64;28.84;31,5;BCS1388054;5;11
009649;04.04.2021;11:50:33;Normalcharge  ;04.12.2018;FEY;;LION;49;14500;7200;192;5;54;55;8400;3000;3701;3702;1;13005;25.14;26.64;27,9;BCS1388054;2;8
009649;04.04.2021;11:51:48;Stop          ;04.12.2018;FEY;;LION;49;14500;7200;128;5;54;55;8400;3000;3789;3743;1;12603;25.24;29.44;28,6;BCS1388054;2;8
009649;05.04.2021;09:37:37;Charge to 60% ;04.12.2018;FEY;;LION;49;14500;7200;192;5;54;55;8400;3000;3703;3704;1;13018;25.24;25.74;26,0;BCS1388054;1;16
009649;05.04.2021;10:01:53;Stop          ;04.12.2018;FEY;;LION;49;14500;7200;192;5;58;60;8400;3000;3765;3766;1;13016;27.04;28.54;31,2;BCS1388054;1;16
009649;22.08.2021;11:08:18;Normalcharge  ;04.12.2018;FEY;;LION;49;14500;7200;192;5;55;57;8400;3000;3705;3705;1;13021;29.94;30.04;32,2;BCS1388054;7;11
009649;22.08.2021;11:08:51;Stop          ;04.12.2018;FEY;;LION;49;14500;7200;128;5;55;57;8400;3000;3735;3717;1;12861;29.94;31.04;32,6;BCS1388054;7;11
009649;25.08.2021;08:15:19;Charge to 60% ;04.12.2018;FEY;;LION;49;14500;7200;192;5;55;57;8400;3000;3704;3705;1;12991;30.44;32.44;33,5;BCS1388054;2;8
009649;25.08.2021;10:43:16;Stop          ;04.12.2018;FEY;;LION;49;14500;7200;192;5;58;60;8400;3000;3742;3742;1;12990;33.04;34.94;36,4;BCS1388054;2;8
009649;01.11.2021;09:51:47;Normalcharge  ;04.12.2018;FEY;;LION;49;14500;7200;192;5;55;57;8400;3000;3713;3714;1;13035;26.14;26.24;26,3;BCS1388054;7;5
009649;01.11.2021;09:53:50;Stop          ;04.12.2018;FEY;;LION;49;14500;7200;128;5;55;57;8400;3000;3809;3761;1;12685;26.14;29.84;27,4;BCS1388054;7;5
009649;01.11.2021;10:02:29;Normalcharge  ;04.12.2018;FEY;;LION;49;14500;7200;192;5;56;57;8400;3000;3718;3719;1;13029;26.24;27.94;29,5;BCS1388054;7;5
009649;01.11.2021;10:03:04;Stop          ;04.12.2018;FEY;;LION;49;14500;7200;128;5;56;57;8400;3000;3778;3744;1;12734;26.24;28.94;29,3;BCS1388054;7;5
009649;01.11.2021;10:27:23;Normalcharge  ;04.12.2018;FEY;;LION;49;14500;7200;192;5;56;57;8400;3000;3719;3719;1;13031;26.44;27.34;27,7;BCS1388054;7;5
009649;01.11.2021;10:29:22;Stop          ;04.12.2018;FEY;;LION;49;14500;7200;128;5;56;57;8400;3000;3813;3766;1;12675;26.54;30.64;28,6;BCS1388054;7;5
009649;01.11.2021;10:32:51;Charge to 60% ;04.12.2018;FEY;;LION;49;14500;7200;192;5;56;57;8400;3000;3724;3725;1;13029;26.64;28.54;29,7;BCS1388054;7;5
009649;01.11.2021;11:46:27;Stop          ;04.12.2018;FEY;;LION;49;14500;7200;192;5;58;60;8400;3000;3751;3752;1;13028;27.94;29.14;32,5;BCS1388054;7;5

File: 009667.txt
Serialnumber ; Date ; Time ; Action ; Date of Manufacture ; Manufacturer ; Battery Name ; Device-Chemistry ; Specification-Info ; Design-Capacity [mAh] ; Design-Voltage [mV] ; Battery Status ; Cycle Count ; SOC [%] ; Relativ SOC[%] ; Desired Voltage [mV]; Desired Current [mA]; Cell Voltage 1 [mV] ; Cell Voltage 2 [mV] ; Max_Error [%] ; Busvoltage[mV] ; Battery Temperature [°C] ; Charger Temperature [°C] ; Batterysystem ; Case ; PLace
009667;10.12.2019;15:28:48;Ladung auf 30% ;03.12.2018;FEY;;LION;49;14500;7200;224;48;94;100;8400;;4132;4130;1;13026;22.64;24.04;27,1;BCS1388054;3;14
009667;10.12.2019;20:47:21;Stop           ;03.12.2018;FEY;;LION;49;14500;7200;192;48;29;30;8400;3000;3470;3545;1;13020;34.54;40.34;33,5;BCS1388054;3;14
009667;11.12.2019;08:48:36;Fastcharge    ;03.12.2018;FEY;;LION;49;14500;7200;192;48;29;30;8400;3000;3566;3565;1;13021;26.34;27.94;31,9;BCS1388054;3;14
009667;11.12.2019;13:39:41;Stop           ;03.12.2018;FEY;;LION;49;14500;7200;224;48;95;100;8400;;4165;4164;1;13022;31.14;31.94;32,5;BCS1388054;3;14
009667;11.12.2019;15:46:24;Ladung auf 10% ;03.12.2018;FEY;;LION;49;14500;7200;224;48;97;100;8400;;4155;4154;1;13023;27.44;28.54;31,4;BCS1388054;3;14
009667;11.12.2019;22:48:44;Stop           ;03.12.2018;FEY;;LION;49;14500;7200;192;50;10;10;8400;3000;3339;3338;1;13020;35.54;40.44;33,6;BCS1388054;3;14
009667;12.12.2019;08:44:58;Normalcharge  ;03.12.2018;FEY;;LION;49;14500;7200;192;50;9;9;8400;3000;3361;3361;1;13022;26.54;28.14;31,9;BCS1388054;3;14
009667;12.12.2019;16:39:24;Stop           ;03.12.2018;FEY;;LION;49;14500;7200;224;50;97;100;8400;;4164;4165;1;13022;30.04;31.24;31,7;BCS1388054;3;14
009667;13.12.2019;10:47:57;Ladung auf 10% ;03.12.2018;FEY;;LION;49;14500;7200;224;50;97;100;8400;;4149;4150;1;13022;26.64;28.14;32,0;BCS1388054;3;14
009667;13.12.2019;15:42:18;Stop           ;03.12.2018;FEY;;LION;49;14500;7200;192;50;36;37;8400;3000;3505;3556;1;13557;33.74;41.14;34,6;BCS1388054;3;14
009667;13.12.2019;15:42:20;Cycle          ;03.12.2018;FEY;;LION;49;14500;7200;192;50;36;37;8400;3000;3504;3556;1;13019;33.74;41.14;34,6;BCS1388054;3;14
009667;14.12.2019;22:36:33;Stop           ;03.12.2018;FEY;;LION;49;14500;7200;224;52;94;100;8400;;4153;4152;1;13024;26.84;28.04;31,6;BCS1388054;3;14
009667;16.12.2019;07:43:10;Ladung auf 10% ;03.12.2018;FEY;;LION;49;14500;7200;224;52;93;99;8400;;4146;4145;1;13023;26.34;27.54;31,9;BCS1388054;3;14
009667;16.12.2019;14:34:27;Stop           ;03.12.2018;FEY;;LION;49;14500;7200;192;53;10;10;8400;3000;3364;3364;1;13021;33.84;35.94;32,5;BCS1388054;3;14
009667;16.12.2019;14:44:07;Ladung auf 90% ;03.12.2018;FEY;;LION;49;14500;7200;192;53;10;10;8400;3000;3369;3368;1;13022;33.04;32.24;31,7;BCS1388054;3;14
009667;16.12.2019;20:48:39;Stop           ;03.12.2018;FEY;;LION;49;14500;7200;128;53;85;90;8400;3000;4157;4107;1;13021;33.04;38.74;31,9;BCS1388054;3;14
009667;17.12.2019;08:37:45;Fastcharge    ;03.12.2018;FEY;;LION;49;14500;7200;192;53;85;90;8400;3000;4052;4051;1;13023;26.44;27.84;31,5;BCS1388054;3;14
009667;17.12.2019;10:30:44;Stop           ;03.12.2018;FEY;;LION;49;14500;7200;224;53;96;100;8400;;4159;4158;1;13023;28.34;29.84;31,4;BCS1388054;3;14
009667;17.12.2019;13:38:28;Ladung auf 10% ;03.12.2018;FEY;;LION;49;14500;7200;224;53;96;100;8400;;4150;4149;1;13023;26.84;28.14;30,8;BCS1388054;3;14
009667;17.12.2019;20:32:04;Stop           ;03.12.2018;FEY;;LION;49;14500;7200;192;54;10;10;8400;3000;3361;3360;1;13020;35.44;37.54;34,6;BCS1388054;3;14
009667;18.12.2019;08:31:22;Fastcharge    ;03.12.2018;FEY;;LION;49;14500;7200;192;54;10;10;8400;3000;3373;3373;1;13023;26.54;28.04;31,6;BCS1388054;3;14
009667;18.12.2019;14:26:33;Stop           ;03.12.2018;FEY;;LION;49;14500;7200;224;54;96;100;8400;;4163;4162;1;13023;31.14;31.54;32,5;BCS1388054;3;14
009667;19.12.2019;08:23:54;Ladung auf 60% ;03.12.2018;FEY;;LION;49;14500;7200;224;54;96;100;8400;;4150;4149;1;13022;26.44;27.84;31,6;BCS1388054;3;14
009667;19.12.2019;11:28:29;Stop           ;03.12.2018;FEY;;LION;49;14500;7200;192;54;58;60;8400;3000;3763;3762;1;13020;34.94;39.54;35,1;BCS1388054;3;14
009667;19.12.2019;12:16:41;Cycle          ;03.12.2018;FEY;;LION;49;14500;7200;192;54;58;60;8400;3000;3781;3781;1;13022;31.34;30.74;32,7;BCS1388054;3;14
009667;20.12.2019;17:23:28;Stop           ;03.12.2018;FEY;;LION;49;14500;7200;224;56;94;100;8400;;4153;4152;1;13023;27.04;28.14;31,9;BCS1388054;3;14
009667;06.01.2020;06:34:46;Ladung auf 60% ;03.12.2018;FEY;;LION;49;14500;7200;224;56;93;99;8400;;4123;4122;1;13023;26.64;27.94;31,9;BCS1388054;3;14
009667;06.01.2020;09:29:20;Stop           ;03.12.2018;FEY;;LION;49;14500;7200;192;56;57;60;8400;3000;3757;3756;1;13022;34.04;39.74;34,2;BCS1388054;3;14
009667;06.01.2020;09:50:34;Fastcharge    ;03.12.2018;FEY;;LION;49;14500;7200;192;56;57;60;8400;3000;3777;3777;1;13023;32.44;31.64;32,7;BCS1388054;3;14
009667;06.01.2020;13:06:26;Stop           ;03.12.2018;FEY;;LION;49;14500;7200;224;56;95;100;8400;;4163;4163;1;13022;30.64;31.34;32,1;BCS1388054;3;14

File: 009676.txt
Serialnumber ; Date ; Time ; Action ; Date of Manufacture ; Manufacturer ; Battery Name ; Device-Chemistry ; Specification-Info ; Design-Capacity [mAh] ; Design-Voltage [mV] ; Battery Status ; Cycle Count ; SOC [%] ; Relativ SOC[%] ; Desired Voltage [mV]; Desired Current [mA]; Cell Voltage 1 [mV] ; Cell Voltage 2 [mV] ; Max_Error [%] ; Busvoltage[mV] ; Battery Temperature [°C] ; Charger Temperature [°C] ; Batterysystem ; Case ; PLace
009676;10.12.2019;15:28:47;Ladung auf 30% ;03.12.2018;FEY;;LION;49;14500;7200;224;48;92;100;8400;;4130;4129;1;13006;22.64;23.24;27,1;BCS1388054;3;11
009676;10.12.2019;20:47:21;Stop           ;03.12.2018;FEY;;LION;49;14500;7200;192;49;29;30;8400;3000;3557;3558;1;13004;33.44;31.94;33,5;BCS1388054;3;11
009676;11.12.2019;08:48:36;Fastcharge    ;03.12.2018;FEY;;LION;49;14500;7200;192;49;29;30;8400;3000;3566;3566;1;13005;26.14;26.34;31,9;BCS1388054;3;11
009676;11.12.2019;13:39:41;Stop           ;03.12.2018;FEY;;LION;49;14500;7200;224;49;94;100;8400;;4161;4162;1;13005;29.84;28.74;32,5;BCS1388054;3;11
009676;11.12.2019;15:46:24;Ladung auf 10% ;03.12.2018;FEY;;LION;49;14500;7200;224;49;96;100;8400;;4153;4153;1;13005;27.04;26.74;31,4;BCS1388054;3;11
009676;11.12.2019;22:48:44;Stop           ;03.12.2018;FEY;;LION;49;14500;7200;192;50;10;10;8400;3000;3351;3352;1;13005;34.14;32.34;33,6;BCS1388054;3;11
009676;12.12.2019;08:44:58;Normalcharge  ;03.12.2018;FEY;;LION;49;14500;7200;192;50;9;10;8400;3000;3361;3362;1;13006;26.44;26.44;31,9;BCS1388054;3;11
009676;12.12.2019;16:39:24;Stop           ;03.12.2018;FEY;;LION;49;14500;7200;224;50;95;100;8400;;4160;4161;1;13005;29.04;28.34;31,7;BCS1388054;3;11
009676;13.12.2019;10:47:57;Ladung auf 10% ;03.12.2018;FEY;;LION;49;14500;7200;224;50;95;100;8400;;4149;4149;1;13005;26.44;26.54;32,0;BCS1388054;3;11
009676;13.12.2019;15:42:18;Stop           ;03.12.2018;FEY;;LION;49;14500;7200;192;51;34;36;8400;3000;3498;3549;1;13550;32.94;35.64;34,6;BCS1388054;3;11
009676;13.12.2019;15:42:20;Cycle          ;03.12.2018;FEY;;LION;49;14500;7200;192;51;34;36;8400;3000;3498;3549;1;13003;32.94;35.64;34,6;BCS1388054;3;11
009676;14.12.2019;22:36:33;Stop           ;03.12.2018;FEY;;LION;49;14500;7200;224;52;93;99;8400;;4152;4152;1;13006;26.54;26.44;31,6;BCS1388054;3;11
009676;16.12.2019;07:43:10;Ladung auf 10% ;03.12.2018;FEY;;LION;49;14500;7200;224;52;93;100;8400;;4146;4146;1;13006;26.14;25.74;31,9;BCS1388054;3;11
009676;16.12.2019;14:34:27;Stop           ;03.12.2018;FEY;;LION;49;14500;7200;192;54;10;10;8400;3000;3364;3364;1;13005;32.74;31.04;32,5;BCS1388054;3;11
009676;16.12.2019;14:44:07;Ladung auf 90% ;03.12.2018;FEY;;LION;49;14500;7200;192;54;10;10;8400;3000;3366;3366;1;13007;31.94;29.74;31,7;BCS1388054;3;11
009676;16.12.2019;20:48:39;Stop           ;03.12.2018;FEY;;LION;49;14500;7200;192;54;84;90;8400;3000;4055;4056;1;13006;31.54;30.04;31,9;BCS1388054;3;11
009676;17.12.2019;08:37:44;Fastcharge    ;03.12.2018;FEY;;LION;49;14500;7200;192;54;84;90;8400;3000;4045;4046;1;13006;26.24;26.24;31,5;BCS1388054;3;11
009676;17.12.2019;10:30:44;Stop           ;03.12.2018;FEY;;LION;49;14500;7200;224;54;94;100;8400;;4163;4163;1;13006;27.84;27.64;31,4;BCS1388054;3;11
009676;17.12.2019;13:38:28;Ladung auf 10% ;03.12.2018;FEY;;LION;49;14500;7200;224;54;94;100;8400;;4150;4150;1;13006;26.54;26.44;30,8;BCS1388054;3;11
009676;17.12.2019;20:32:04;Stop           ;03.12.2018;FEY;;LION;49;14500;7200;192;55;10;10;8400;3000;3361;3362;1;13007;34.14;32.44;34,6;BCS1388054;3;11
009676;18.12.2019;08:31:22;Fastcharge    ;03.12.2018;FEY;;LION;49;14500;7200;192;55;10;10;8400;3000;3371;3372;1;13006;26.34;26.44;31,6;BCS1388054;3;11
009676;18.12.2019;14:26:33;Stop           ;03.12.2018;FEY;;LION;49;14500;7200;224;55;94;100;8400;;4160;4160;1;13006;29.94;28.84;32,5;BCS1388054;3;11
009676;19.12.2019;08:23:54;Ladung auf 60% ;03.12.2018;FEY;;LION;49;14500;7200;224;55;95;100;8400;;4149;4148;1;13005;26.24;26.24;31,6;BCS1388054;3;11
009676;19.12.2019;11:28:29;Stop           ;03.12.2018;FEY;;LION;49;14500;7200;192;55;57;60;8400;3000;3763;3765;1;13004;34.04;33.34;35,1;BCS1388054;3;11
009676;19.12.2019;12:16:41;Cycle          ;03.12.2018;FEY;;LION;49;14500;7200;192;55;57;60;8400;3000;3774;3777;1;13005;30.44;28.74;32,7;BCS1388054;3;11
009676;20.12.2019;17:23:28;Stop           ;03.12.2018;FEY;;LION;49;14500;7200;224;56;93;100;8400;;4152;4152;1;13006;26.64;26.64;31,9;BCS1388054;3;11
009676;06.01.2020;06:34:46;Ladung auf 60% ;03.12.2018;FEY;;LION;49;14500;7200;224;56;92;99;8400;;4122;4122;1;13006;26.34;26.24;31,9;BCS1388054;3;11
009676;06.01.2020;09:29:20;Stop           ;03.12.2018;FEY;;LION;49;14500;7200;192;56;56;60;8400;3000;3762;3764;1;13006;33.24;32.54;34,2;BCS1388054;3;11
009676;06.01.2020;09:50:34;Fastcharge    ;03.12.2018;FEY;;LION;49;14500;7200;192;56;56;60;8400;3000;3771;3775;1;13006;31.64;29.44;32,7;BCS1388054;3;11
009676;06.01.2020;13:06:26;Stop           ;03.12.2018;FEY;;LION;49;14500;7200;224;56;94;100;8400;;4161;4161;1;13007;29.44;28.44;32,1;BCS1388054;3;11