Folder: Battery_sort_V2/reader/backup_20220209/Batterieverzeichnis_new (part 4)

File: 009775.txt
Serialnumber ; Date ; Time ; Action ; Date of Manufacture ; Manufacturer ; Battery Name ; Device-Chemistry ; Specification-Info ; Design-Capacity [mAh] ; Design-Voltage [mV] ; Battery Status ; Cycle Count ; SOC [%] ; Relativ SOC[%] ; Desired Voltage [mV]; Desired Current [mA]; Cell Voltage 1 [mV] ; Cell Voltage 2 [mV] ; Max_Error [%] ; Busvoltage[mV] ; Battery Temperature [°C] ; Charger Temperature [°C] ; Batterysystem ; Case ; PLace
009775;07.12.2020;04:14:17;Cycle         ;04.12.2018;FEY;;LION;49;14500;7200;224;2;98;100;8400;;4142;4144;1;12992;25.44;27.84;30,3;BCS1388054;1;1
009775;08.12.2020;16:19:38;Stop          ;04.12.2018;FEY;;LION;49;14500;7200;224;4;97;100;8400;;4151;4152;1;12991;27.24;29.14;31,9;BCS1388054;1;1
009775;03.03.2021;08:17:08;Normalcharge  ;04.12.2018;FEY;;LION;49;14500;7200;192;4;95;98;8400;;4116;4116;1;13001;22.84;24.04;23,5;BCS1388054;1;8
009775;04.03.2021;07:53:51;Stop          ;04.12.2018;FEY;;LION;49;14500;7200;192;4;95;98;8400;;4116;4116;1;12996;25.94;28.64;31,6;BCS1388054;1;8
009775;04.04.2021;11:50:33;Normalcharge  ;04.12.2018;FEY;;LION;49;14500;7200;192;4;50;51;8400;3000;3661;3661;1;12989;24.74;26.94;27,9;BCS1388054;2;7
009775;04.04.2021;11:51:48;Stop          ;04.12.2018;FEY;;LION;49;14500;7200;128;4;50;51;8400;3000;3749;3700;1;12601;24.84;29.74;28,6;BCS1388054;2;7
009775;05.04.2021;09:38:17;Charge to 60% ;04.12.2018;FEY;;LION;49;14500;7200;192;4;50;51;8400;3000;3662;3663;1;12999;24.84;26.54;26,4;BCS1388054;5;7
009775;05.04.2021;10:34:50;Charge to 60% ;04.12.2018;FEY;;LION;49;14500;7200;192;4;58;60;8400;3000;3740;3744;1;12914;27.94;30.44;32,4;BCS1388054;5;7
009775;05.04.2021;13:16:09;Stop          ;04.12.2018;FEY;;LION;49;14500;7200;192;4;58;60;8400;3000;3738;3741;1;12995;27.64;30.24;32,2;BCS1388054;5;7
009775;22.08.2021;11:37:30;Normalcharge  ;04.12.2018;FEY;;LION;49;14500;7200;192;4;53;55;8400;3000;3692;3693;1;12999;21.14;28.64;31,9;BCS1388054;3;10
009775;22.08.2021;11:38:19;Stop           ;04.12.2018;FEY;;LION;49;14500;7200;128;4;53;55;8400;3000;3779;3733;1;12557;21.24;30.84;32,1;BCS1388054;3;10
009775;25.08.2021;08:15:15;Ladung auf 60% ;04.12.2018;FEY;;LION;49;14500;7200;192;4;53;55;8400;3000;3695;3696;1;12995;30.24;31.84;33,4;BCS1388054;3;10
009775;25.08.2021;08:40:44;Stop           ;04.12.2018;FEY;;LION;49;14500;7200;192;4;58;60;8400;3000;3749;3753;1;12997;32.04;34.54;36,1;BCS1388054;3;10
009775;01.11.2021;09:52:00;Normalcharge  ;04.12.2018;FEY;;LION;49;14500;7200;192;4;55;57;8400;3000;3714;3715;1;13007;25.54;25.14;26,3;BCS1388054;5;1
009775;01.11.2021;09:53:40;Stop          ;04.12.2018;FEY;;LION;49;14500;7200;128;4;55;57;8400;3000;3804;3760;1;12613;25.54;29.14;27,3;BCS1388054;5;1
009775;01.11.2021;10:02:19;Normalcharge  ;04.12.2018;FEY;;LION;49;14500;7200;192;4;55;57;8400;3000;3718;3720;1;13002;25.74;27.64;29,5;BCS1388054;5;1
009775;01.11.2021;10:03:11;Stop          ;04.12.2018;FEY;;LION;49;14500;7200;128;4;55;57;8400;3000;3802;3758;1;12610;25.74;29.44;29,3;BCS1388054;5;1
009775;01.11.2021;10:27:35;Normalcharge  ;04.12.2018;FEY;;LION;49;14500;7200;192;4;55;57;8400;3000;3720;3721;1;13004;26.04;25.94;27,8;BCS1388054;5;1
009775;01.11.2021;10:29:14;Stop          ;04.12.2018;FEY;;LION;49;14500;7200;128;4;56;58;8400;3000;3811;3764;1;12609;26.04;29.94;28,6;BCS1388054;5;1
009775;01.11.2021;10:32:33;Charge to 60% ;04.12.2018;FEY;;LION;49;14500;7200;192;4;56;58;8400;3000;3724;3725;1;13002;26.14;27.64;29,9;BCS1388054;5;1
009775;01.11.2021;11:11:47;Stop          ;04.12.2018;FEY;;LION;49;14500;7200;192;4;58;60;8400;3000;3750;3754;1;13002;27.44;29.34;32,5;BCS1388054;5;1

File: 009856.txt
Serialnumber ; Date ; Time ; Action ; Date of Manufacture ; Manufacturer ; Battery Name ; Device-Chemistry ; Specification-Info ; Design-Capacity [mAh] ; Design-Voltage [mV] ; Battery Status ; Cycle Count ; SOC [%] ; Relativ SOC[%] ; Desired Voltage [mV]; Desired Current [mA]; Cell Voltage 1 [mV] ; Cell Voltage 2 [mV] ; Max_Error [%] ; Busvoltage[mV] ; Battery Temperature [°C] ; Charger Temperature [°C] ; Batterysystem ; Case ; PLace
009856;10.12.2019;15:29:01;Charge to 30% ;03.12.2018;FEY;;LION;49;14500;7200;224;48;92;100;8400;;4129;4128;1;13010;22.44;24.24;27,1;BCS1388054;5;12
009856;10.12.2019;20:48:54;Stop          ;03.12.2018;FEY;;LION;49;14500;7200;192;49;28;30;8400;3000;3562;3561;1;13006;31.94;31.54;33,1;BCS1388054;5;12
009856;11.12.2019;08:48:53;Fastcharge    ;03.12.2018;FEY;;LION;49;14500;7200;192;49;28;30;8400;3000;3568;3568;1;13006;26.14;27.44;31,9;BCS1388054;5;12
009856;11.12.2019;13:40:11;Stop          ;03.12.2018;FEY;;LION;49;14500;7200;224;49;93;100;8400;;4160;4161;1;13008;28.74;29.14;32,4;BCS1388054;5;12
009856;11.12.2019;15:46:40;Charge to 10% ;03.12.2018;FEY;;LION;49;14500;7200;224;49;95;100;8400;;4152;4152;1;13008;26.74;27.44;31,4;BCS1388054;5;12
009856;11.12.2019;22:49:07;Stop          ;03.12.2018;FEY;;LION;49;14500;7200;192;50;10;10;8400;3000;3355;3355;1;13005;32.44;32.14;33,5;BCS1388054;5;12
009856;12.12.2019;08:45:10;Normalcharge  ;03.12.2018;FEY;;LION;49;14500;7200;192;50;9;10;8400;3000;3363;3364;1;13007;26.34;27.34;31,7;BCS1388054;5;12
009856;12.12.2019;16:41:20;Stop          ;03.12.2018;FEY;;LION;49;14500;7200;224;50;95;100;8400;;4158;4159;1;13006;28.24;28.64;31,6;BCS1388054;5;12
009856;13.12.2019;10:48:05;Charge to 10% ;03.12.2018;FEY;;LION;49;14500;7200;224;50;95;100;8400;;4147;4148;1;13007;26.34;27.64;32,0;BCS1388054;5;12
009856;13.12.2019;15:40:55;Stop          ;03.12.2018;FEY;;LION;49;14500;7200;192;51;34;36;8400;3000;3497;3548;1;13523;31.54;33.84;34,6;BCS1388054;5;12
009856;13.12.2019;15:41:42;Cycle         ;03.12.2018;FEY;;LION;49;14500;7200;192;51;34;36;8400;3000;3580;3579;1;13005;31.54;32.04;34,5;BCS1388054;5;12
009856;14.12.2019;22:39:35;Stop          ;03.12.2018;FEY;;LION;49;14500;7200;224;52;91;99;8400;;4150;4149;1;13007;26.34;27.44;31,7;BCS1388054;5;12
009856;16.12.2019;07:43:20;Charge to 10% ;03.12.2018;FEY;;LION;49;14500;7200;224;52;92;100;8400;;4145;4144;1;13008;26.04;26.54;31,9;BCS1388054;5;12
009856;16.12.2019;14:34:29;Stop          ;03.12.2018;FEY;;LION;49;14500;7200;192;53;10;10;8400;3000;3366;3366;1;13007;30.94;30.54;32,5;BCS1388054;5;12
009856;16.12.2019;14:44:17;Charge to 90% ;03.12.2018;FEY;;LION;49;14500;7200;192;53;10;10;8400;3000;3368;3368;1;13006;30.14;29.54;31,9;BCS1388054;5;12
009856;16.12.2019;20:48:55;Stop          ;03.12.2018;FEY;;LION;49;14500;7200;192;53;83;90;8400;3000;4053;4054;1;13007;30.14;30.04;31,9;BCS1388054;5;12
009856;17.12.2019;08:37:54;Fastcharge    ;03.12.2018;FEY;;LION;49;14500;7200;192;53;83;90;8400;3000;4045;4045;1;13008;26.14;27.44;31,6;BCS1388054;5;12
009856;17.12.2019;10:33:46;Stop          ;03.12.2018;FEY;;LION;49;14500;7200;224;53;93;100;8400;;4160;4162;1;13008;27.44;28.04;31,1;BCS1388054;5;12
009856;17.12.2019;10:33:46;Stop          ;03.12.2018;FEY;;LION;49;14500;7200;224;53;93;100;8400;;4160;4162;1;13008;27.44;28.04;31,1;BCS1388054;5;12
009856;17.12.2019;13:38:36;Charge to 10% ;03.12.2018;FEY;;LION;49;14500;7200;224;53;93;100;8400;;4149;4150;1;13007;26.44;27.24;30,8;BCS1388054;5;12
009856;17.12.2019;20:33:18;Stop          ;03.12.2018;FEY;;LION;49;14500;7200;192;54;10;10;8400;3000;3365;3366;1;13006;32.44;32.24;34,5;BCS1388054;5;12
009856;18.12.2019;08:31:30;Fastcharge    ;03.12.2018;FEY;;LION;49;14500;7200;192;54;10;10;8400;3000;3374;3374;1;13008;26.34;27.24;31,6;BCS1388054;5;12
009856;18.12.2019;14:29:27;Stop          ;03.12.2018;FEY;;LION;49;14500;7200;224;54;93;100;8400;;4159;4161;1;13007;28.74;28.94;31,7;BCS1388054;5;12
009856;19.12.2019;08:24:02;Charge to 60% ;03.12.2018;FEY;;LION;49;14500;7200;224;54;94;100;8400;;4148;4149;1;13007;26.24;27.44;31,5;BCS1388054;5;12
009856;19.12.2019;11:31:09;Stop          ;03.12.2018;FEY;;LION;49;14500;7200;192;55;57;60;8400;3000;3765;3768;1;13005;32.64;32.24;34,4;BCS1388054;5;12
009856;19.12.2019;12:16:49;Cycle         ;03.12.2018;FEY;;LION;49;14500;7200;192;55;57;60;8400;3000;3773;3777;1;13007;29.04;29.34;32,7;BCS1388054;5;12
009856;20.12.2019;17:27:50;Stop          ;03.12.2018;FEY;;LION;49;14500;7200;224;56;92;100;8400;;4151;4150;1;13008;26.44;27.14;31,0;BCS1388054;5;12
009856;06.01.2020;06:34:55;Charge to 60% ;03.12.2018;FEY;;LION;49;14500;7200;224;56;91;99;8400;;4122;4121;1;13007;26.54;27.54;31,9;BCS1388054;5;12
009856;06.01.2020;09:30:26;Stop          ;03.12.2018;FEY;;LION;49;14500;7200;192;56;56;60;8400;3000;3766;3767;1;13006;31.94;31.64;33,9;BCS1388054;5;12
009856;06.01.2020;09:50:42;Fastcharge    ;03.12.2018;FEY;;LION;49;14500;7200;192;56;56;60;8400;3000;3773;3774;1;13008;30.14;30.04;32,7;BCS1388054;5;12
009856;06.01.2020;13:09:56;Stop          ;03.12.2018;FEY;;LION;49;14500;7200;224;56;93;100;8400;;4159;4160;1;13009;28.34;28.34;31,4;BCS1388054;5;12