Folder: Battery_sort_V2/reader/backup_20220209/Batterieverzeichnis (part 2)

File: 009536.txt
Serialnumber ; Date ; Time ; Action ; Date of Manufacture ; Manufacturer ; Battery Name ; Device-Chemistry ; Specification-Info ; Design-Capacity [mAh] ; Design-Voltage [mV] ; Battery Status ; Cycle Count ; SOC [%] ; Relativ SOC[%] ; Desired Voltage [mV]; Desired Current [mA]; Cell Voltage 1 [mV] ; Cell Voltage 2 [mV] ; Max_Error [%] ; Busvoltage[mV] ; Battery Temperature [°C] ; Charger Temperature [°C] ; Batterysystem ; Case ; PLace
009536;07.12.2020;04:14:40;Cycle         ;04.12.2018;FEY;;LION;49;14500;7200;192;1;96;96;8400;;4100;4099;1;13017;25.94;27.54;30,3;BCS1388054;7;7
009536;08.12.2020;16:20:20;Stop          ;04.12.2018;FEY;;LION;49;14500;7200;192;1;97;96;8400;;4099;4098;1;13016;27.94;28.94;31,9;BCS1388054;7;7
009536;12.01.2021;04:17:36;Charge to 90% ;04.12.2018;FEY;;LION;49;14500;7200;192;1;78;78;8400;3000;3916;3916;1;13016;23.34;23.64;23,6;BCS1388054;5;8
009536;12.01.2021;05:15:37;Stop          ;04.12.2018;FEY;;LION;49;14500;7200;128;1;90;90;8400;3000;4141;4093;1;13011;28.44;32.74;31,6;BCS1388054;5;8
009536;12.01.2021;05:21:53;Cycle         ;04.12.2018;FEY;;LION;49;14500;7200;192;1;90;90;8400;3000;4045;4045;1;13011;28.34;28.44;30,6;BCS1388054;5;8
009536;13.01.2021;08:31:10;Stop          ;04.12.2018;FEY;;LION;49;14500;7200;224;3;98;100;8400;;4157;4157;1;13012;27.54;28.34;31,1;BCS1388054;5;8
009536;22.02.2021;17:31:46;Normalcharge  ;04.12.2018;FEY;;LION;49;14500;7200;192;3;62;64;8400;3000;3791;3791;1;12991;25.94;26.14;31,6;BCS1388054;1;5
009536;22.02.2021;23:06:28;Stop          ;04.12.2018;FEY;;LION;49;14500;7200;224;3;99;100;8400;;4156;4155;1;12993;26.64;26.54;30,6;BCS1388054;1;5
009536;04.04.2021;11:50:33;Normalcharge  ;04.12.2018;FEY;;LION;49;14500;7200;192;4;52;54;8400;3000;3682;3682;1;13008;25.24;26.24;27,9;BCS1388054;2;16
009536;04.04.2021;11:51:48;Stop          ;04.12.2018;FEY;;LION;49;14500;7200;128;4;52;54;8400;3000;3770;3722;1;12579;25.24;28.84;28,6;BCS1388054;2;16
009536;05.04.2021;09:38:00;Ladung auf 60% ;04.12.2018;FEY;;LION;49;14500;7200;192;4;52;54;8400;3000;3684;3684;1;13011;25.34;25.14;26,3;BCS1388054;3;17
009536;05.04.2021;10:06:07;Stop           ;04.12.2018;FEY;;LION;49;14500;7200;128;4;58;60;8400;3000;3850;3799;1;13009;27.74;34.34;31,4;BCS1388054;3;17
009536;22.08.2021;11:07:56;Normalcharge  ;04.12.2018;FEY;;LION;49;14500;7200;192;4;44;45;8400;3000;3620;3620;1;12979;23.14;30.34;32,0;BCS1388054;2;18
009536;22.08.2021;11:08:29;Stop          ;04.12.2018;FEY;;LION;49;14500;7200;128;4;44;45;8400;3000;3660;3638;1;12596;23.34;31.54;32,4;BCS1388054;2;18
009536;25.08.2021;08:15:02;Charge to 60% ;04.12.2018;FEY;;LION;49;14500;7200;192;4;44;45;8400;3000;3622;3622;1;13009;30.54;32.94;33,2;BCS1388054;5;15
009536;25.08.2021;13:03:31;Stop          ;04.12.2018;FEY;;LION;49;14500;7200;192;4;58;60;8400;3000;3736;3735;1;13006;33.04;35.64;36,6;BCS1388054;5;15
009536;28.12.2021;09:01:33;Normalcharge  ;04.12.2018;FEY;;LION;49;14500;7200;192;4;50;51;8400;3000;3653;3652;1;13014;24.04;25.24;25,4;BCS1388054;5;5
009536;28.12.2021;09:02:46;Stop          ;04.12.2018;FEY;;LION;49;14500;7200;128;4;50;51;8400;3000;3741;3695;1;12674;24.04;27.54;26,0;BCS1388054;5;5

File: 009575.txt
Serialnumber ; Date ; Time ; Action ; Date of Manufacture ; Manufacturer ; Battery Name ; Device-Chemistry ; Specification-Info ; Design-Capacity [mAh] ; Design-Voltage [mV] ; Battery Status ; Cycle Count ; SOC [%] ; Relativ SOC[%] ; Desired Voltage [mV]; Desired Current [mA]; Cell Voltage 1 [mV] ; Cell Voltage 2 [mV] ; Max_Error [%] ; Busvoltage[mV] ; Battery Temperature [°C] ; Charger Temperature [°C] ; Batterysystem ; Case ; PLace
009575;30.11.2020;09:42:55;Stop          ;04.12.2018;FEY;;LION;49;14500;7200;192;3;95;96;8400;;4122;4121;1;13028;27.74;29.74;31,7;BCS1388054;7;8
009575;12.01.2021;04:17:22;Charge to 90% ;04.12.2018;FEY;;LION;49;14500;7200;192;3;94;95;8400;3000;4106;4106;1;13007;23.14;23.14;23,5;BCS1388054;2;11
009575;12.01.2021;04:54:21;Stop          ;04.12.2018;FEY;;LION;49;14500;7200;192;4;90;90;8400;3000;4056;4056;1;12998;26.74;28.84;31,9;BCS1388054;2;11
009575;12.01.2021;05:21:40;Cycle         ;04.12.2018;FEY;;LION;49;14500;7200;192;4;90;90;8400;3000;4059;4059;1;13000;27.14;27.14;30,6;BCS1388054;2;11
009575;13.01.2021;08:20:19;Stop          ;04.12.2018;FEY;;LION;49;14500;7200;224;5;97;100;8400;;4155;4155;1;13001;26.94;27.04;30,8;BCS1388054;2;11
009575;22.02.2021;17:31:59;Normalcharge  ;04.12.2018;FEY;;LION;49;14500;7200;192;5;63;65;8400;3000;3802;3804;1;13004;26.44;27.54;31,6;BCS1388054;2;3
009575;22.02.2021;21:53:27;Stop          ;04.12.2018;FEY;;LION;49;14500;7200;224;5;97;100;8400;;4156;4157;1;13005;26.94;29.14;31,7;BCS1388054;2;3
009575;06.04.2021;08:39:03;Normalcharge  ;04.12.2018;FEY;;LION;49;14500;7200;224;5;95;99;8400;;4128;4128;1;13014;21.34;25.64;28,1;BCS1388054;4;10
009575;06.04.2021;08:39:53;Stop          ;04.12.2018;FEY;;LION;49;14500;7200;224;5;95;99;8400;;4128;4128;1;13012;21.34;25.84;28,4;BCS1388054;4;10
009575;08.04.2021;07:58:12;Normalcharge  ;04.12.2018;FEY;;LION;49;14500;7200;224;5;95;99;8400;;4128;4128;1;13015;25.24;25.24;26,3;BCS1388054;4;10
009575;08.04.2021;07:59:34;Stop          ;04.12.2018;FEY;;LION;49;14500;7200;224;5;95;99;8400;;4128;4128;1;12995;25.34;26.44;26,7;BCS1388054;4;10
009575;08.04.2021;10:36:07;Normalcharge  ;04.12.2018;FEY;;LION;49;14500;7200;224;5;95;99;8400;;4127;4128;1;13014;25.44;26.64;28,5;BCS1388054;4;10
009575;08.04.2021;10:37:03;Stop          ;04.12.2018;FEY;;LION;49;14500;7200;224;5;95;99;8400;;4127;4128;1;12990;25.44;26.94;29,0;BCS1388054;4;10
009575;18.04.2021;08:34:04;Normalcharge  ;04.12.2018;FEY;;LION;49;14500;7200;224;5;95;99;8400;;4124;4124;1;13014;26.24;27.34;27,9;BCS1388054;4;10
009575;18.04.2021;08:34:10;Stop          ;04.12.2018;FEY;;LION;49;14500;7200;224;5;95;99;8400;;4124;4124;1;13012;26.24;27.44;28,1;BCS1388054;4;10
009575;04.08.2021;07:24:46;Normalcharge  ;04.12.2018;FEY;;LION;49;14500;7200;192;5;93;96;8400;;4092;4092;1;13012;30.34;31.34;31,5;BCS1388054;4;10
009575;04.08.2021;07:25:30;Stop          ;04.12.2018;FEY;;LION;49;14500;7200;192;5;93;96;8400;;4092;4092;1;12988;30.34;31.64;31,7;BCS1388054;4;10
009575;22.08.2021;11:08:14;Normalcharge  ;04.12.2018;FEY;;LION;49;14500;7200;192;5;90;93;8400;3000;4071;4072;1;12995;23.74;29.94;32,2;BCS1388054;6;18
009575;22.08.2021;11:08:47;Stop          ;04.12.2018;FEY;;LION;49;14500;7200;128;5;90;93;8400;3000;4096;4086;1;12760;23.94;31.24;32,5;BCS1388054;6;18
009575;14.10.2021;12:39:51;Normalcharge  ;04.12.2018;FEY;;LION;49;14500;7200;192;5;86;89;8400;3000;4027;4028;1;12990;25.54;26.64;27,9;BCS1388054;1;2
009575;14.10.2021;12:41:14;Stop          ;04.12.2018;FEY;;LION;49;14500;7200;128;5;86;89;8400;3000;4107;4071;1;12481;25.54;29.94;28,2;BCS1388054;1;2
009575;28.12.2021;09:01:29;Normalcharge  ;04.12.2018;FEY;;LION;49;14500;7200;192;6;38;39;8400;3000;3595;3596;1;13003;23.54;24.04;25,4;BCS1388054;4;15
009575;28.12.2021;09:02:38;Stop          ;04.12.2018;FEY;;LION;49;14500;7200;128;6;38;40;8400;3000;3686;3637;1;12578;23.54;26.94;25,8;BCS1388054;4;15

File: 009621.txt
Serialnumber ; Date ; Time ; Action ; Date of Manufacture ; Manufacturer ; Battery Name ; Device-Chemistry ; Specification-Info ; Design-Capacity [mAh] ; Design-Voltage [mV] ; Battery Status ; Cycle Count ; SOC [%] ; Relativ SOC[%] ; Desired Voltage [mV]; Desired Current [mA]; Cell Voltage 1 [mV] ; Cell Voltage 2 [mV] ; Max_Error [%] ; Busvoltage[mV] ; Battery Temperature [°C] ; Charger Temperature [°C] ; Batterysystem ; Case ; PLace
009621;10.12.2019;15:29:09;Charge to 30% ;03.12.2018;FEY;;LION;49;14500;7200;224;25;94;99;8400;;4117;4117;1;13014;22.84;24.64;27,1;BCS1388054;6;1
009621;10.12.2019;20:46:41;Stop          ;03.12.2018;FEY;;LION;49;14500;7200;192;26;29;30;8400;3000;3545;3544;1;13013;32.34;36.34;33,6;BCS1388054;6;1
009621;11.12.2019;08:49:03;Fastcharge    ;03.12.2018;FEY;;LION;49;14500;7200;192;26;29;30;8400;3000;3565;3565;1;13012;26.44;28.04;31,9;BCS1388054;6;1
009621;11.12.2019;13:39:30;Stop          ;03.12.2018;FEY;;LION;49;14500;7200;224;26;96;100;8400;;4163;4163;1;13013;29.04;30.34;32,5;BCS1388054;6;1
009621;11.12.2019;15:46:47;Charge to 10% ;03.12.2018;FEY;;LION;49;14500;7200;224;26;98;100;8400;;4153;4153;1;13013;27.04;28.34;31,4;BCS1388054;6;1
009621;11.12.2019;22:52:10;Stop          ;03.12.2018;FEY;;LION;49;14500;7200;192;27;10;10;8400;3000;3346;3346;1;13012;32.94;33.74;33,0;BCS1388054;6;1
009621;12.12.2019;08:45:18;Normalcharge  ;03.12.2018;FEY;;LION;49;14500;7200;192;27;9;9;8400;3000;3360;3360;1;13013;26.64;28.14;31,7;BCS1388054;6;1
009621;12.12.2019;16:41:29;Stop          ;03.12.2018;FEY;;LION;49;14500;7200;224;27;97;100;8400;;4164;4164;1;13013;28.54;29.94;31,5;BCS1388054;6;1
009621;13.12.2019;10:48:09;Charge to 10% ;03.12.2018;FEY;;LION;49;14500;7200;224;27;97;100;8400;;4150;4150;1;13012;26.64;28.24;32,0;BCS1388054;6;1
009621;13.12.2019;13:51:54;Stop          ;03.12.2018;FEY;;LION;49;14500;7200;192;28;59;61;8400;3000;3685;3736;1;13487;33.64;39.14;36,1;BCS1388054;6;1
009621;13.12.2019;13:53:13;Fastcharge    ;03.12.2018;FEY;;LION;49;14500;7200;192;28;59;61;8400;3000;3772;3772;1;13015;33.64;36.64;35,8;BCS1388054;6;1
009621;13.12.2019;13:53:19;Stop          ;03.12.2018;FEY;;LION;49;14500;7200;192;28;59;61;8400;3000;3773;3773;1;13006;33.64;36.44;35,8;BCS1388054;6;1
009621;13.12.2019;13:53:25;Normalcharge  ;03.12.2018;FEY;;LION;49;14500;7200;192;28;59;61;8400;3000;3773;3773;1;13015;33.64;36.44;35,8;BCS1388054;6;1
009621;13.12.2019;20:04:59;Stop          ;03.12.2018;FEY;;LION;49;14500;7200;224;28;97;100;8400;;4153;4153;1;13017;27.74;29.14;32,0;BCS1388054;6;1
009621;16.12.2019;07:43:27;Charge to 10% ;03.12.2018;FEY;;LION;49;14500;7200;224;28;97;100;8400;;4145;4145;1;13018;26.34;27.24;31,7;BCS1388054;6;1
009621;16.12.2019;14:43:10;Stop          ;03.12.2018;FEY;;LION;49;14500;7200;192;29;10;10;8400;3000;3343;3344;1;13017;31.04;32.84;31,7;BCS1388054;6;1
009621;16.12.2019;14:44:21;Charge to 90% ;03.12.2018;FEY;;LION;49;14500;7200;192;29;10;10;8400;3000;3348;3348;1;13018;30.94;31.34;31,9;BCS1388054;6;1
009621;16.12.2019;20:54:26;Stop          ;03.12.2018;FEY;;LION;49;14500;7200;128;29;86;90;8400;3000;4062;4065;1;13019;30.84;33.14;32,1;BCS1388054;6;1
009621;17.12.2019;08:37:57;Fastcharge    ;03.12.2018;FEY;;LION;49;14500;7200;192;29;86;90;8400;3000;4041;4042;1;13017;26.44;27.94;31,6;BCS1388054;6;1
009621;17.12.2019;13:38:40;Charge to 10% ;03.12.2018;FEY;;LION;49;14500;7200;224;29;97;100;8400;;4151;4151;1;13018;26.74;27.94;30,8;BCS1388054;6;1
009621;17.12.2019;20:41:40;Stop          ;03.12.2018;FEY;;LION;49;14500;7200;192;30;10;10;8400;3000;3344;3344;1;13018;32.84;34.14;32,6;BCS1388054;6;1
009621;18.12.2019;08:31:34;Fastcharge    ;03.12.2018;FEY;;LION;49;14500;7200;192;30;9;9;8400;3000;3361;3361;1;13018;26.64;28.04;31,6;BCS1388054;6;1
009621;18.12.2019;14:33:31;Stop          ;03.12.2018;FEY;;LION;49;14500;7200;224;30;96;100;8400;;4162;4161;1;13018;29.04;29.64;31,4;BCS1388054;6;1
009621;19.12.2019;08:24:06;Charge to 60% ;03.12.2018;FEY;;LION;49;14500;7200;224;30;97;100;8400;;4149;4148;1;13018;26.44;28.04;31,5;BCS1388054;6;1
009621;19.12.2019;11:34:24;Stop          ;03.12.2018;FEY;;LION;49;14500;7200;192;31;58;60;8400;3000;3775;3774;1;13017;32.64;32.74;33,5;BCS1388054;6;1
009621;19.12.2019;12:16:53;Cycle         ;03.12.2018;FEY;;LION;49;14500;7200;192;31;58;60;8400;3000;3784;3784;1;13018;29.44;29.84;32,7;BCS1388054;6;1
009621;20.12.2019;17:31:05;Stop          ;03.12.2018;FEY;;LION;49;14500;7200;224;32;95;100;8400;;4153;4153;1;13018;26.64;27.84;30,6;BCS1388054;6;1
009621;06.01.2020;06:34:58;Charge to 60% ;03.12.2018;FEY;;LION;49;14500;7200;224;32;94;99;8400;;4122;4122;1;13018;26.74;28.04;31,9;BCS1388054;6;1
009621;06.01.2020;09:30:42;Stop          ;03.12.2018;FEY;;LION;49;14500;7200;192;32;58;60;8400;3000;3677;3728;1;13019;32.14;36.64;33,7;BCS1388054;6;1
009621;06.01.2020;09:50:46;Fastcharge    ;03.12.2018;FEY;;LION;49;14500;7200;192;32;58;60;8400;3000;3780;3780;1;13019;30.54;30.34;32,7;BCS1388054;6;1
009621;06.01.2020;13:06:22;Stop          ;03.12.2018;FEY;;LION;49;14500;7200;224;32;96;100;8400;;4162;4162;1;13020;28.74;29.94;32,1;BCS1388054;6;1

File: 009624.txt
Serialnumber ; Date ; Time ; Action ; Date of Manufacture ; Manufacturer ; Battery Name ; Device-Chemistry ; Specification-Info ; Design-Capacity [mAh] ; Design-Voltage [mV] ; Battery Status ; Cycle Count ; SOC [%] ; Relativ SOC[%] ; Desired Voltage [mV]; Desired Current [mA]; Cell Voltage 1 [mV] ; Cell Voltage 2 [mV] ; Max_Error [%] ; Busvoltage[mV] ; Battery Temperature [°C] ; Charger Temperature [°C] ; Batterysystem ; Case ; PLace
009624;10.12.2019;15:28:34;Charge to 30% ;04.12.2018;FEY;;LION;49;14500;7200;192;49;92;98;8400;;4108;4108;1;13007;23.74;25.74;27,1;BCS1388054;1;17
009624;10.12.2019;20:42:17;Stop          ;04.12.2018;FEY;;LION;49;14500;7200;192;49;29;30;8400;3000;3558;3560;1;13006;32.34;33.74;34,1;BCS1388054;1;17
009624;11.12.2019;08:48:18;Fastcharge    ;04.12.2018;FEY;;LION;49;14500;7200;192;49;29;30;8400;3000;3568;3570;1;13007;26.24;27.54;31,9;BCS1388054;1;17
009624;11.12.2019;13:40:21;Stop          ;04.12.2018;FEY;;LION;49;14500;7200;224;49;95;100;8400;;4160;4160;1;13007;28.94;29.84;32,4;BCS1388054;1;17
009624;11.12.2019;15:45:57;Charge to 30% ;04.12.2018;FEY;;LION;49;14500;7200;224;49;96;99;8400;;4152;4151;1;13006;26.84;27.74;31,5;BCS1388054;1;17
009624;11.12.2019;15:46:00;Stop          ;04.12.2018;FEY;;LION;49;14500;7200;224;49;96;99;8400;;4152;4151;1;13007;26.84;27.74;31,5;BCS1388054;1;17
009624;11.12.2019;15:46:13;Charge to 10% ;04.12.2018;FEY;;LION;49;14500;7200;224;49;96;99;8400;;4152;4151;1;13007;26.84;27.74;31,5;BCS1388054;1;17
009624;11.12.2019;22:50:20;Stop          ;04.12.2018;FEY;;LION;49;14500;7200;192;51;10;10;8400;3000;3358;3360;1;13007;32.64;32.74;33,4;BCS1388054;1;17
009624;12.12.2019;08:44:40;Normalcharge  ;04.12.2018;FEY;;LION;49;14500;7200;192;51;9;10;8400;3000;3367;3369;1;13008;26.44;27.74;31,9;BCS1388054;1;17
009624;12.12.2019;16:39:22;Stop          ;04.12.2018;FEY;;LION;49;14500;7200;224;51;96;100;8400;;4160;4159;1;13006;28.44;29.34;31,7;BCS1388054;1;17
009624;13.12.2019;10:47:47;Charge to 10% ;04.12.2018;FEY;;LION;49;14500;7200;224;51;96;100;8400;;4148;4146;1;13007;26.44;27.74;32,0;BCS1388054;1;17
009624;13.12.2019;15:41:58;Stop          ;04.12.2018;FEY;;LION;49;14500;7200;192;51;35;36;8400;3000;3501;3552;1;13649;32.04;38.74;34,6;BCS1388054;1;17
009624;13.12.2019;15:42:01;Cycle         ;04.12.2018;FEY;;LION;49;14500;7200;192;51;35;36;8400;3000;3500;3551;1;13005;32.04;38.74;34,6;BCS1388054;1;17
009624;14.12.2019;22:41:25;Stop          ;04.12.2018;FEY;;LION;49;14500;7200;224;53;94;100;8400;;4150;4153;1;13007;26.44;27.64;31,9;BCS1388054;1;17
009624;16.12.2019;07:43:03;Charge to 10% ;04.12.2018;FEY;;LION;49;14500;7200;224;53;94;100;8400;;4144;4146;1;13006;26.14;27.04;31,9;BCS1388054;1;17
009624;16.12.2019;14:36:13;Stop          ;04.12.2018;FEY;;LION;49;14500;7200;192;54;10;10;8400;3000;3363;3366;1;13007;31.74;32.24;32,4;BCS1388054;1;17
009624;16.12.2019;14:44:00;Charge to 90% ;04.12.2018;FEY;;LION;49;14500;7200;192;54;10;10;8400;3000;3365;3369;1;13007;31.04;30.44;31,7;BCS1388054;1;17
009624;16.12.2019;20:50:03;Stop          ;04.12.2018;FEY;;LION;49;14500;7200;192;54;85;90;8400;3000;4055;4058;1;13008;30.64;31.34;31,7;BCS1388054;1;17
009624;17.12.2019;08:37:37;Fastcharge    ;04.12.2018;FEY;;LION;49;14500;7200;192;54;85;90;8400;3000;4045;4047;1;13007;26.24;27.44;31,6;BCS1388054;1;17
009624;17.12.2019;10:31:11;Stop          ;04.12.2018;FEY;;LION;49;14500;7200;224;54;95;100;8400;;4160;4161;1;13007;27.54;28.64;31,4;BCS1388054;1;17
009624;17.12.2019;13:38:19;Charge to 10% ;04.12.2018;FEY;;LION;49;14500;7200;224;54;95;100;8400;;4149;4149;1;13007;26.44;27.34;30,8;BCS1388054;1;17
009624;17.12.2019;20:33:50;Stop          ;04.12.2018;FEY;;LION;49;14500;7200;192;55;10;10;8400;3000;3360;3363;1;13006;32.84;33.44;34,2;BCS1388054;1;17
009624;18.12.2019;08:31:14;Fastcharge    ;04.12.2018;FEY;;LION;49;14500;7200;192;55;10;10;8400;3000;3371;3374;1;13008;26.34;27.54;31,6;BCS1388054;1;17
009624;18.12.2019;14:28:33;Stop          ;04.12.2018;FEY;;LION;49;14500;7200;224;55;95;100;8400;;4161;4161;1;13007;28.94;29.74;31,9;BCS1388054;1;17
009624;19.12.2019;08:23:45;Charge to 60% ;04.12.2018;FEY;;LION;49;14500;7200;224;55;96;100;8400;;4147;4147;1;13008;26.24;27.44;31,5;BCS1388054;1;17
009624;19.12.2019;11:29:32;Stop          ;04.12.2018;FEY;;LION;49;14500;7200;192;55;58;60;8400;3000;3760;3765;1;13006;32.84;35.04;34,9;BCS1388054;1;17
009624;19.12.2019;12:16:33;Cycle         ;04.12.2018;FEY;;LION;49;14500;7200;192;55;58;60;8400;3000;3772;3779;1;13007;29.34;29.44;32,7;BCS1388054;1;17
009624;20.12.2019;17:26:19;Stop          ;04.12.2018;FEY;;LION;49;14500;7200;224;57;94;100;8400;;4150;4152;1;13007;26.44;27.44;31,2;BCS1388054;1;17
009624;06.01.2020;06:34:38;Charge to 60% ;04.12.2018;FEY;;LION;49;14500;7200;224;57;93;99;8400;;4121;4122;1;13007;26.34;27.44;31,9;BCS1388054;1;17
009624;06.01.2020;09:30:30;Stop          ;04.12.2018;FEY;;LION;49;14500;7200;192;57;57;60;8400;3000;3765;3771;1;13006;32.04;33.34;33,9;BCS1388054;1;17
009624;06.01.2020;09:50:27;Fastcharge    ;04.12.2018;FEY;;LION;49;14500;7200;192;57;57;60;8400;3000;3773;3781;1;13007;30.34;30.14;32,6;BCS1388054;1;17
009624;06.01.2020;13:07:36;Stop          ;04.12.2018;FEY;;LION;49;14500;7200;224;57;94;100;8400;;4159;4160;1;13008;28.64;29.44;31,7;BCS1388054;1;17

File: 009626.txt
Serialnumber ; Date ; Time ; Action ; Date of Manufacture ; Manufacturer ; Battery Name ; Device-Chemistry ; Specification-Info ; Design-Capacity [mAh] ; Design-Voltage [mV] ; Battery Status ; Cycle Count ; SOC [%] ; Relativ SOC[%] ; Desired Voltage [mV]; Desired Current [mA]; Cell Voltage 1 [mV] ; Cell Voltage 2 [mV] ; Max_Error [%] ; Busvoltage[mV] ; Battery Temperature [°C] ; Charger Temperature [°C] ; Batterysystem ; Case ; PLace
009626;10.12.2019;15:28:54;Charge to 30% ;03.12.2018;FEY;;LION;49;14500;7200;224;56;93;100;8400;;4128;4129;1;13020;22.54;24.34;27,1;BCS1388054;4;13
009626;10.12.2019;20:47:57;Stop          ;03.12.2018;FEY;;LION;49;14500;7200;192;57;29;30;8400;3000;3558;3559;1;13017;33.94;35.44;33,4;BCS1388054;4;13
009626;11.12.2019;08:48:41;Fastcharge    ;03.12.2018;FEY;;LION;49;14500;7200;192;57;29;30;8400;3000;3567;3568;1;13018;26.54;28.14;31,9;BCS1388054;4;13
009626;11.12.2019;13:42:44;Stop          ;03.12.2018;FEY;;LION;49;14500;7200;224;57;95;100;8400;;4161;4161;1;13017;30.34;31.14;31,9;BCS1388054;4;13
009626;11.12.2019;15:46:31;Charge to 10% ;03.12.2018;FEY;;LION;49;14500;7200;224;57;96;100;8400;;4153;4153;1;13018;27.34;28.64;31,4;BCS1388054;4;13
009626;11.12.2019;22:50:44;Stop          ;03.12.2018;FEY;;LION;49;14500;7200;192;58;10;10;8400;3000;3353;3353;1;13016;34.64;35.04;33,2;BCS1388054;4;13
009626;12.12.2019;08:45:03;Normalcharge  ;03.12.2018;FEY;;LION;49;14500;7200;192;58;9;10;8400;3000;3363;3363;1;13019;26.64;28.34;31,9;BCS1388054;4;13
009626;12.12.2019;16:41:48;Stop          ;03.12.2018;FEY;;LION;49;14500;7200;224;58;96;100;8400;;4161;4160;1;13018;29.54;30.54;31,5;BCS1388054;4;13
009626;13.12.2019;10:48:01;Charge to 10% ;03.12.2018;FEY;;LION;49;14500;7200;224;58;96;100;8400;;4148;4148;1;13018;26.64;28.44;32,0;BCS1388054;4;13
009626;13.12.2019;15:42:25;Stop          ;03.12.2018;FEY;;LION;49;14500;7200;192;59;35;36;8400;3000;3499;3550;1;13515;33.44;41.84;34,6;BCS1388054;4;13
009626;13.12.2019;15:42:27;Cycle         ;03.12.2018;FEY;;LION;49;14500;7200;192;59;35;36;8400;3000;3499;3550;1;13515;33.44;41.84;34,6;BCS1388054;4;13
009626;14.12.2019;22:44:28;Stop          ;03.12.2018;FEY;;LION;49;14500;7200;224;60;93;99;8400;;4151;4151;1;13018;26.74;28.44;32,0;BCS1388054;4;13
009626;16.12.2019;07:43:14;Charge to 10% ;03.12.2018;FEY;;LION;49;14500;7200;224;60;93;100;8400;;4145;4145;1;13019;26.54;28.04;31,9;BCS1388054;4;13
009626;16.12.2019;14:36:44;Stop          ;03.12.2018;FEY;;LION;49;14500;7200;192;61;10;10;8400;3000;3365;3366;1;13018;33.04;33.84;32,4;BCS1388054;4;13
009626;16.12.2019;14:44:13;Charge to 90% ;03.12.2018;FEY;;LION;49;14500;7200;192;61;10;10;8400;3000;3367;3368;1;13018;32.34;31.84;31,7;BCS1388054;4;13
009626;16.12.2019;20:50:28;Stop          ;03.12.2018;FEY;;LION;49;14500;7200;192;61;84;90;8400;3000;4055;4056;1;13018;32.24;33.14;31,6;BCS1388054;4;13
009626;17.12.2019;08:37:50;Fastcharge    ;03.12.2018;FEY;;LION;49;14500;7200;192;61;84;90;8400;3000;4046;4046;1;13018;26.54;28.14;31,6;BCS1388054;4;13
009626;17.12.2019;10:31:06;Stop          ;03.12.2018;FEY;;LION;49;14500;7200;224;61;95;100;8400;;4162;4162;1;13019;28.44;30.74;31,4;BCS1388054;4;13
009626;17.12.2019;13:38:32;Charge to 10% ;03.12.2018;FEY;;LION;49;14500;7200;224;61;95;100;8400;;4150;4149;1;13018;26.84;28.24;30,8;BCS1388054;4;13
009626;17.12.2019;20:34:29;Stop          ;03.12.2018;FEY;;LION;49;14500;7200;192;62;10;10;8400;3000;3364;3364;1;13016;34.64;35.34;34,1;BCS1388054;4;13
009626;18.12.2019;08:31:26;Fastcharge    ;03.12.2018;FEY;;LION;49;14500;7200;192;62;10;10;8400;3000;3373;3374;1;13019;26.64;28.34;31,6;BCS1388054;4;13
009626;18.12.2019;14:29:12;Stop          ;03.12.2018;FEY;;LION;49;14500;7200;224;62;95;100;8400;;4160;4159;1;13018;30.44;31.04;31,9;BCS1388054;4;13
009626;19.12.2019;08:23:58;Charge to 60% ;03.12.2018;FEY;;LION;49;14500;7200;224;62;95;100;8400;;4148;4148;1;13018;26.54;28.14;31,6;BCS1388054;4;13
009626;19.12.2019;11:30:18;Stop          ;03.12.2018;FEY;;LION;49;14500;7200;192;63;58;60;8400;3000;3765;3766;1;13016;34.54;37.04;34,6;BCS1388054;4;13
009626;19.12.2019;12:16:45;Cycle         ;03.12.2018;FEY;;LION;49;14500;7200;192;63;58;60;8400;3000;3775;3777;1;13018;30.74;30.94;32,7;BCS1388054;4;13
009626;20.12.2019;17:30:48;Stop          ;03.12.2018;FEY;;LION;49;14500;7200;224;64;94;100;8400;;4152;4152;1;13019;26.94;28.14;30,6;BCS1388054;4;13
009626;06.01.2020;06:34:50;Charge to 60% ;03.12.2018;FEY;;LION;49;14500;7200;224;64;93;99;8400;;4122;4122;1;13019;26.84;28.44;31,9;BCS1388054;4;13
009626;06.01.2020;09:30:33;Stop          ;03.12.2018;FEY;;LION;49;14500;7200;192;64;57;60;8400;3000;3766;3768;1;13018;33.64;36.04;33,7;BCS1388054;4;13
009626;06.01.2020;09:50:38;Fastcharge    ;03.12.2018;FEY;;LION;49;14500;7200;192;64;57;60;8400;3000;3775;3777;1;13019;31.94;31.64;32,7;BCS1388054;4;13
009626;06.01.2020;13:09:19;Stop          ;03.12.2018;FEY;;LION;49;14500;7200;224;64;94;100;8400;;4160;4161;1;13020;30.14;30.84;31,4;BCS1388054;4;13