Folder: Battery_sort_V2/reader/backup_20220209/Batterieverzeichnis_new

Note: reader/backup_20220209/Batterieverzeichnis_new/001005.txt
Serialnumber ; Date ; Time ; Action ; Date of Manufacture ; Manufacturer ; Battery Name ; Device-Chemistry ; Specification-Info ; Design-Capacity [mAh] ; Design-Voltage [mV] ; Battery Status ; Cycle Count ; SOC [%] ; Relativ SOC[%] ; Desired Voltage [mV]; Desired Current [mA]; Cell Voltage 1 [mV] ; Cell Voltage 2 [mV] ; Max_Error [%] ; Busvoltage[mV] ; Battery Temperature [°C] ; Charger Temperature [°C] ; Batterysystem ; Case ; PLace
001005;13.12.2019;13:53:13;Fastcharge    ;28.11.2017;FEY;;LION;49;14500;7200;192;19;86;91;8400;3000;4048;4047;1;13018;21.74;40.54;35,8;BCS1388054;6;15
001005;13.12.2019;13:53:19;Stop          ;28.11.2017;FEY;;LION;49;14500;7200;192;19;86;91;8400;3000;4048;4047;1;13010;21.74;40.44;35,8;BCS1388054;6;15
001005;13.12.2019;13:53:25;Normalcharge  ;28.11.2017;FEY;;LION;49;14500;7200;192;19;86;91;8400;3000;4048;4047;1;13019;21.74;40.34;35,8;BCS1388054;6;15
001005;13.12.2019;20:04:59;Stop          ;28.11.2017;FEY;;LION;49;14500;7200;224;19;95;100;8400;;4153;4152;1;13021;28.24;30.54;32,0;BCS1388054;6;15

Note: reader/backup_20220209/Batterieverzeichnis_new/009674.txt
009674;29.11.2020;04:36:38;Cycle         ;04.12.2018;FEY;;LION;49;14500;7200;16576;2;99;99;;;4150;4147;1;13006;23.24;24.34;27,9;BCS1388054;4;6
009674;12.01.2021;04:17:28;Ladung auf 90% ;04.12.2018;FEY;;LION;49;14500;7200;16576;2;98;98;;;4128;4126;1;13018;23.34;23.74;23,6;BCS1388054;3;3
009674;12.01.2021;04:57:30;Stop           ;04.12.2018;FEY;;LION;49;14500;7200;192;2;91;90;8400;3000;4052;4050;1;13013;27.14;30.24;31,5;BCS1388054;3;3
009674;12.01.2021;05:21:45;Cycle          ;04.12.2018;FEY;;LION;49;14500;7200;192;2;91;90;8400;3000;4059;4056;1;13014;27.34;28.64;30,4;BCS1388054;3;3
009674;13.01.2021;08:23:25;Stop           ;04.12.2018;FEY;;LION;49;14500;7200;224;4;97;100;8400;;4155;4152;1;13014;27.34;28.54;31,4;BCS1388054;3;3
009674;21.02.2021;13:45:29;Normalcharge  ;04.12.2018;FEY;;LION;49;14500;7200;224;4;97;99;8400;;4131;4128;1;13010;23.44;22.54;27,8;BCS1388054;6;5
009674;06.04.2021;08:38:50;Normalcharge  ;04.12.2018;FEY;;LION;49;14500;7200;192;4;95;98;8400;;4115;4112;1;13005;20.74;25.14;28,1;BCS1388054;3;12
009674;06.04.2021;08:39:42;Stop           ;04.12.2018;FEY;;LION;49;14500;7200;192;4;95;98;8400;;4115;4113;1;13004;20.84;25.24;28,2;BCS1388054;3;12
009674;08.04.2021;07:58:01;Normalcharge  ;04.12.2018;FEY;;LION;49;14500;7200;192;4;95;98;8400;;4115;4112;1;13005;25.44;25.54;26,4;BCS1388054;3;12
009674;08.04.2021;07:59:40;Stop           ;04.12.2018;FEY;;LION;49;14500;7200;192;4;95;98;8400;;4115;4113;1;13003;25.44;25.84;26,8;BCS1388054;3;12
009674;08.04.2021;10:35:05;Normalcharge  ;04.12.2018;FEY;;LION;49;14500;7200;192;4;95;98;8400;;4115;4113;1;13005;25.74;25.84;28,1;BCS1388054;3;12
009674;08.04.2021;10:36:56;Stop           ;04.12.2018;FEY;;LION;49;14500;7200;192;4;95;98;8400;;4114;4112;1;13004;25.74;26.34;29,0;BCS1388054;3;12
009674;18.04.2021;08:33:50;Normalcharge  ;04.12.2018;FEY;;LION;49;14500;7200;192;4;95;97;8400;;4112;4110;1;13003;26.34;26.74;27,8;BCS1388054;3;12
009674;18.04.2021;08:33:58;Stop           ;04.12.2018;FEY;;LION;49;14500;7200;192;4;95;97;8400;;4112;4110;1;13002;26.34;26.74;27,9;BCS1388054;3;12
009674;04.08.2021;07:24:50;Normalcharge  ;04.12.2018;FEY;;LION;49;14500;7200;192;4;94;97;8400;;4083;4081;1;13001;30.64;31.04;31,6;BCS1388054;3;12
009674;04.08.2021;07:25:37;Stop           ;04.12.2018;FEY;;LION;49;14500;7200;192;4;94;97;8400;;4083;4081;1;12998;30.64;31.14;31,7;BCS1388054;3;12
009674;22.08.2021;11:08:05;Normalcharge  ;04.12.2018;FEY;;LION;49;14500;7200;192;4;67;69;8400;3000;3838;3837;1;12994;22.74;29.24;32,1;BCS1388054;4;14
009674;22.08.2021;11:08:38;Stop          ;04.12.2018;FEY;;LION;49;14500;7200;128;4;67;69;8400;3000;3906;3865;1;12663;22.84;30.64;32,5;BCS1388054;4;14
009674;12.10.2021;12:40:28;Normalcharge  ;04.12.2018;FEY;;LION;49;14500;7200;192;4;66;67;8400;3000;3812;3811;1;13024;24.34;27.34;28,8;BCS1388054;7;7
009674;12.10.2021;12:40:39;Stop          ;04.12.2018;FEY;;LION;49;14500;7200;192;4;66;67;8400;3000;3811;3810;1;13017;24.34;27.54;28,9;BCS1388054;7;7
009674;12.10.2021;12:43:08;Normalcharge  ;04.12.2018;FEY;;

Note: reader/backup_20220209/Batterieverzeichnis_new/009704.txt
009704;29.11.2020;04:36:38;Cycle         ;04.12.2018;FEY;;LION;49;14500;7200;16576;3;99;99;;;4156;4156;1;13009;22.84;24.24;27,9;BCS1388054;4;8
009704;12.01.2021;04:16:00;Charge to 90% ;04.12.2018;FEY;;LION;49;14500;7200;16576;3;98;98;;;4133;4134;1;13000;22.84;15.04;23,0;BCS1388054;1;14
009704;12.01.2021;04:16:03;Stop          ;04.12.2018;FEY;;LION;49;14500;7200;16576;3;98;98;;;4133;4134;1;13001;22.84;22.94;23,0;BCS1388054;1;14
009704;12.01.2021;04:17:15;Charge to 90% ;04.12.2018;FEY;;LION;49;14500;7200;16576;3;98;98;;;4133;4134;1;13000;22.84;23.84;23,5;BCS1388054;1;14
009704;12.01.2021;04:55:18;Stop          ;04.12.2018;FEY;;LION;49;14500;7200;192;3;91;90;8400;3000;4049;4049;1;12994;26.44;33.14;31,7;BCS1388054;1;14
009704;12.01.2021;05:21:33;Cycle         ;04.12.2018;FEY;;LION;49;14500;7200;192;3;91;90;8400;3000;4060;4060;1;12995;26.54;28.84;30,6;BCS1388054;1;14
009704;13.01.2021;08:18:34;Stop          ;04.12.2018;FEY;;LION;49;14500;7200;224;4;96;99;8400;;4154;4153;1;12997;26.54;28.74;30,7;BCS1388054;1;14
009704;21.02.2021;13:44:56;Normalcharge  ;04.12.2018;FEY;;LION;49;14500;7200;192;5;40;42;8400;3000;3607;3607;1;13019;22.44;22.64;27,7;BCS1388054;5;17
009704;21.02.2021;19:31:36;Stop          ;04.12.2018;FEY;;LION;49;14500;7200;224;5;97;100;8400;;4159;4158;1;13013;27.14;27.74;30,6;BCS1388054;5;17
009704;06.04.2021;08:39:03;Normalcharge  ;04.12.2018;FEY;;LION;49;14500;7200;224;5;97;99;8400;;4128;4127;1;13006;21.04;25.14;28,1;BCS1388054;4;6
009704;06.04.2021;08:39:53;Stop          ;04.12.2018;FEY;;LION;49;14500;7200;224;5;97;99;8400;;4128;4127;1;13004;21.14;25.34;28,4;BCS1388054;4;6
009704;08.04.2021;07:58:12;Normalcharge  ;04.12.2018;FEY;;LION;49;14500;7200;224;5;96;99;8400;;4128;4127;1;13007;25.04;23.84;26,3;BCS1388054;4;6
009704;08.04.2021;07:59:34;Stop          ;04.12.2018;FEY;;LION;49;14500;7200;224;5;96;99;8400;;4128;4127;1;12987;25.04;25.64;26,7;BCS1388054;4;6
009704;08.04.2021;10:36:07;Normalcharge  ;04.12.2018;FEY;;LION;49;14500;7200;224;5;96;99;8400;;4128;4127;1;13006;25.24;25.84;28,5;BCS1388054;4;6
009704;08.04.2021;10:37:03;Stop          ;04.12.2018;FEY;;LION;49;14500;7200;224;5;96;99;8400;;4128;4128;1;12982;25.24;26.14;29,0;BCS1388054;4;6
009704;18.04.2021;08:34:04;Normalcharge  ;04.12.2018;FEY;;LION;49;14500;7200;224;5;96;99;8400;;4124;4124;1;13004;25.94;26.74;27,9;BCS1388054;4;6
009704;18.04.2021;08:34:10;Stop          ;04.12.2018;FEY;;LION;49;14500;7200;224;5;96;99;8400;;4124;4124;1;13004;25.94;26.74;28,1;BCS1388054;4;6
009704;04.08.2021;07:24:46;Normalcharge  ;04.12.2018;FEY;;LION;49;14500;7200;192;5;94;96;8400;;4094;4093;1;13001;30.04;30.84;31,5;BCS1388054;4;6
009704;04.08.2021;07:25:30;Stop          ;04.12.2018;FEY;;LION;49;14500;7200;192;5;94;96;8400;;4094;4093;1;12978;30.04;30.94;31,7;BCS1388054;4;6
009704;22.08.2021;11:08:09;Normalcharge  ;04.12.2018;FEY;;LION;49;14500;7200;192;5;85;88;8400;3000;4009;4008;1;13007;22.24;29.14;32,1;BCS1388054;5;16
009704;22.08.2021;11:08:42;Stop          ;04.12.2018;FEY;;LION;49;14500;7200;128;5

File: 001033.txt
Serialnumber ; Date ; Time ; Action ; Date of Manufacture ; Manufacturer ; Battery Name ; Device-Chemistry ; Specification-Info ; Design-Capacity [mAh] ; Design-Voltage [mV] ; Battery Status ; Cycle Count ; SOC [%] ; Relativ SOC[%] ; Desired Voltage [mV]; Desired Current [mA]; Cell Voltage 1 [mV] ; Cell Voltage 2 [mV] ; Max_Error [%] ; Busvoltage[mV] ; Battery Temperature [°C] ; Charger Temperature [°C] ; Batterysystem ; Case ; PLace
001033;10.12.2019;15:29:15;Charge to 30% ;28.11.2017;FEY;;LION;49;14500;7200;224;22;91;99;8400;;4121;4123;1;13028;22.24;24.34;27,1;BCS1388054;7;18
001033;10.12.2019;20:46:57;Stop          ;28.11.2017;FEY;;LION;49;14500;7200;192;23;28;30;8400;3000;3556;3556;1;13027;30.84;32.04;33,5;BCS1388054;7;18
001033;11.12.2019;08:49:12;Fastcharge    ;28.11.2017;FEY;;LION;49;14500;7200;192;23;28;30;8400;3000;3562;3563;1;13027;25.54;27.04;31,9;BCS1388054;7;18
001033;11.12.2019;13:38:42;Stop          ;28.11.2017;FEY;;LION;49;14500;7200;224;23;93;100;8400;;4161;4162;1;13026;27.84;29.34;32,7;BCS1388054;7;18
001033;11.12.2019;15:46:56;Charge to 10% ;28.11.2017;FEY;;LION;49;14500;7200;224;23;94;100;8400;;4153;4154;1;13026;26.04;27.34;31,2;BCS1388054;7;18
001033;11.12.2019;22:51:50;Stop          ;28.11.2017;FEY;;LION;49;14500;7200;192;24;10;10;8400;3000;3355;3356;1;13026;30.94;31.74;33,0;BCS1388054;7;18
001033;12.12.2019;08:45:27;Normalcharge  ;28.11.2017;FEY;;LION;49;14500;7200;192;24;9;10;8400;3000;3362;3363;1;13026;25.74;27.14;31,7;BCS1388054;7;18
001033;12.12.2019;16:41:08;Stop          ;28.11.2017;FEY;;LION;49;14500;7200;224;24;94;100;8400;;4158;4162;1;13026;27.44;28.54;31,6;BCS1388054;7;18
001033;13.12.2019;10:48:13;Charge to 10% ;28.11.2017;FEY;;LION;49;14500;7200;224;24;94;100;8400;;4149;4152;1;13027;25.74;27.24;32,0;BCS1388054;7;18
001033;13.12.2019;13:48:48;Stop          ;28.11.2017;FEY;;LION;49;14500;7200;192;25;56;60;8400;3000;3670;3724;1;13546;32.44;40.84;36,8;BCS1388054;7;18
001033;16.12.2019;07:43:34;Charge to 10% ;28.11.2017;FEY;;LION;49;14500;7200;192;25;56;60;8400;3000;3775;3777;1;13027;22.44;25.94;31,7;BCS1388054;7;18
001033;16.12.2019;11:52:34;Stop          ;28.11.2017;FEY;;LION;49;14500;7200;192;25;10;10;8400;3000;3358;3360;1;13026;30.54;31.74;34,7;BCS1388054;7;18
001033;16.12.2019;14:44:25;Charge to 90% ;28.11.2017;FEY;;LION;49;14500;7200;192;25;9;10;8400;3000;3362;3364;1;13027;27.74;28.64;31,7;BCS1388054;7;18
001033;16.12.2019;20:53:59;Stop          ;28.11.2017;FEY;;LION;49;14500;7200;192;25;83;90;8400;3000;4050;4052;1;13028;29.04;30.04;32,1;BCS1388054;7;18
001033;17.12.2019;08:38:02;Fastcharge    ;28.11.2017;FEY;;LION;49;14500;7200;192;25;84;90;8400;3000;4043;4044;1;13027;25.54;26.94;31,6;BCS1388054;7;18
001033;17.12.2019;10:36:25;Stop          ;28.11.2017;FEY;;LION;49;14500;7200;224;25;93;100;8400;;4159;4161;1;13027;26.84;28.14;31,5;BCS1388054;7;18
001033;17.12.2019;13:38:44;Charge to 10% ;28.11.2017;FEY;;LION;49;14500;7200;224;25;93;100;8400;;4152;4154;1;13027;25.74;27.04;30,8;BCS1388054;7;18
001033;17.12.2019;20:42:03;Stop          ;28.11.2017;FEY;;LION;49;14500;7200;192;27;10;10;8400;3000;3359;3361;1;13027;30.74;31.44;32,6;BCS1388054;7;18
001033;18.12.2019;08:31:43;Fastcharge    ;28.11.2017;FEY;;LION;49;14500;7200;192;27;9;9;8400;3000;3366;3368;1;13026;25.74;27.04;31,6;BCS1388054;7;18
001033;18.12.2019;14:30:48;Stop          ;28.11.2017;FEY;;LION;49;14500;7200;224;27;92;100;8400;;4158;4161;1;13027;27.84;28.84;31,6;BCS1388054;7;18
001033;19.12.2019;08:24:17;Charge to 60% ;28.11.2017;FEY;;LION;49;14500;7200;224;27;93;100;8400;;4148;4151;1;13026;25.64;27.04;31,6;BCS1388054;7;18
001033;19.12.2019;11:28:26;Stop          ;28.11.2017;FEY;;LION;49;14500;7200;192;27;56;60;8400;3000;3770;3771;1;13027;31.74;33.74;35,1;BCS1388054;7;18
001033;19.12.2019;12:16:57;Cycle         ;28.11.2017;FEY;;LION;49;14500;7200;192;27;56;60;8400;3000;3779;3780;1;13026;28.14;29.04;32,7;BCS1388054;7;18
001033;20.12.2019;17:22:28;Stop          ;28.11.2017;FEY;;LION;49;14500;7200;224;28;92;100;8400;;4152;4154;1;13027;25.84;27.34;31,9;BCS1388054;7;18
001033;06.01.2020;06:35:02;Charge to 60% ;28.11.2017;FEY;;LION;49;14500;7200;192;28;90;98;8400;;4122;4123;1;13028;25.74;27.14;31,9;BCS1388054;7;18
001033;06.01.2020;09:29:52;Stop          ;28.11.2017;FEY;;LION;49;14500;7200;192;29;56;60;8400;3000;3771;3770;1;13027;30.84;32.74;34,0;BCS1388054;7;18
001033;06.01.2020;09:50:50;Fastcharge    ;28.11.2017;FEY;;LION;49;14500;7200;192;29;56;60;8400;3000;3777;3778;1;13027;29.04;29.64;32,7;BCS1388054;7;18
001033;06.01.2020;13:05:11;Stop          ;28.11.2017;FEY;;LION;49;14500;7200;224;29;93;100;8400;;4159;4160;1;13028;27.74;29.14;32,4;BCS1388054;7;18

File: 001075.txt
Serialnumber ; Date ; Time ; Action ; Date of Manufacture ; Manufacturer ; Battery Name ; Device-Chemistry ; Specification-Info ; Design-Capacity [mAh] ; Design-Voltage [mV] ; Battery Status ; Cycle Count ; SOC [%] ; Relativ SOC[%] ; Desired Voltage [mV]; Desired Current [mA]; Cell Voltage 1 [mV] ; Cell Voltage 2 [mV] ; Max_Error [%] ; Busvoltage[mV] ; Battery Temperature [°C] ; Charger Temperature [°C] ; Batterysystem ; Case ; PLace
001075;10.12.2019;15:29:09;Charge to 30% ;15.02.2018;FEY;;LION;49;14500;7200;224;11;92;99;8400;;4123;4124;1;13015;22.74;23.44;27,1;BCS1388054;6;12
001075;10.12.2019;20:46:41;Stop          ;15.02.2018;FEY;;LION;49;14500;7200;192;11;28;30;8400;3000;3560;3560;1;13010;31.64;30.34;33,6;BCS1388054;6;12
001075;11.12.2019;08:49:03;Fastcharge    ;15.02.2018;FEY;;LION;49;14500;7200;192;11;28;30;8400;3000;3568;3568;1;13010;26.24;26.44;31,9;BCS1388054;6;12
001075;11.12.2019;13:39:30;Stop          ;15.02.2018;FEY;;LION;49;14500;7200;224;11;94;100;8400;;4161;4162;1;13011;28.54;27.94;32,5;BCS1388054;6;12
001075;11.12.2019;15:46:47;Charge to 10% ;15.02.2018;FEY;;LION;49;14500;7200;224;11;96;100;8400;;4156;4156;1;13012;26.64;26.44;31,4;BCS1388054;6;12
001075;11.12.2019;22:52:10;Stop          ;15.02.2018;FEY;;LION;49;14500;7200;192;13;10;10;8400;3000;3358;3358;1;13010;31.84;30.24;33,0;BCS1388054;6;12
001075;12.12.2019;08:45:18;Normalcharge  ;15.02.2018;FEY;;LION;49;14500;7200;192;13;9;9;8400;3000;3366;3365;1;13010;26.44;26.24;31,7;BCS1388054;6;12
001075;12.12.2019;16:41:29;Stop          ;15.02.2018;FEY;;LION;49;14500;7200;224;13;95;100;8400;;4160;4160;1;13010;28.14;27.44;31,5;BCS1388054;6;12
001075;13.12.2019;10:48:09;Charge to 10% ;15.02.2018;FEY;;LION;49;14500;7200;224;13;96;100;8400;;4151;4151;1;13010;26.44;26.54;32,0;BCS1388054;6;12
001075;13.12.2019;13:51:54;Stop          ;15.02.2018;FEY;;LION;49;14500;7200;192;13;57;60;8400;3000;3680;3726;1;13507;33.04;33.84;36,1;BCS1388054;6;12
001075;13.12.2019;13:53:13;Fastcharge    ;15.02.2018;FEY;;LION;49;14500;7200;192;13;57;60;8400;3000;3761;3758;1;13008;32.94;32.34;35,8;BCS1388054;6;12
001075;13.12.2019;13:53:19;Stop          ;15.02.2018;FEY;;LION;49;14500;7200;192;13;57;60;8400;3000;3762;3759;1;12999;32.94;32.24;35,8;BCS1388054;6;12
001075;13.12.2019;13:53:25;Normalcharge  ;15.02.2018;FEY;;LION;49;14500;7200;192;13;57;60;8400;3000;3762;3759;1;13008;32.94;32.34;35,8;BCS1388054;6;12
001075;13.12.2019;20:04:59;Stop          ;15.02.2018;FEY;;LION;49;14500;7200;224;13;96;100;8400;;4154;4154;1;13010;27.44;27.44;32,0;BCS1388054;6;12
001075;16.12.2019;07:43:27;Charge to 10% ;15.02.2018;FEY;;LION;49;14500;7200;224;13;95;100;8400;;4146;4146;1;13012;26.04;25.14;31,7;BCS1388054;6;12
001075;16.12.2019;14:43:10;Stop          ;15.02.2018;FEY;;LION;49;14500;7200;192;14;10;10;8400;3000;3361;3361;1;13011;29.84;28.24;31,7;BCS1388054;6;12
001075;16.12.2019;14:44:21;Charge to 90% ;15.02.2018;FEY;;LION;49;14500;7200;192;14;10;10;8400;3000;3361;3361;1;13010;29.74;28.14;31,9;BCS1388054;6;12
001075;16.12.2019;20:54:26;Stop          ;15.02.2018;FEY;;LION;49;14500;7200;192;14;85;90;8400;3000;4051;4052;1;13012;29.74;28.94;32,1;BCS1388054;6;12
001075;17.12.2019;08:37:57;Fastcharge    ;15.02.2018;FEY;;LION;49;14500;7200;192;14;85;90;8400;3000;4043;4043;1;13011;26.24;26.34;31,6;BCS1388054;6;12
001075;17.12.2019;13:38:40;Charge to 10% ;15.02.2018;FEY;;LION;49;14500;7200;224;14;95;100;8400;;4152;4153;1;13011;26.34;26.34;30,8;BCS1388054;6;12
001075;17.12.2019;20:41:41;Stop          ;15.02.2018;FEY;;LION;49;14500;7200;192;15;10;10;8400;3000;3358;3358;1;13011;31.64;29.94;32,6;BCS1388054;6;12
001075;18.12.2019;08:31:34;Fastcharge    ;15.02.2018;FEY;;LION;49;14500;7200;192;15;9;9;8400;3000;3367;3367;1;13011;26.44;26.24;31,6;BCS1388054;6;12
001075;18.12.2019;14:33:31;Stop          ;15.02.2018;FEY;;LION;49;14500;7200;224;15;95;100;8400;;4161;4161;1;13011;28.34;27.54;31,4;BCS1388054;6;12
001075;19.12.2019;08:24:06;Charge to 60% ;15.02.2018;FEY;;LION;49;14500;7200;224;15;96;100;8400;;4151;4152;1;13010;26.24;26.34;31,5;BCS1388054;6;12
001075;19.12.2019;11:34:24;Stop          ;15.02.2018;FEY;;LION;49;14500;7200;192;16;58;60;8400;3000;3773;3770;1;13012;31.94;30.24;33,5;BCS1388054;6;12
001075;19.12.2019;12:16:53;Cycle         ;15.02.2018;FEY;;LION;49;14500;7200;192;16;58;60;8400;3000;3782;3779;1;13011;28.74;28.04;32,7;BCS1388054;6;12
001075;20.12.2019;17:31:05;Stop          ;15.02.2018;FEY;;LION;49;14500;7200;224;17;93;100;8400;;4154;4152;1;13012;26.34;26.14;30,6;BCS1388054;6;12
001075;06.01.2020;06:34:58;Charge to 60% ;15.02.2018;FEY;;LION;49;14500;7200;192;17;91;98;8400;;4124;4122;1;13013;26.44;26.44;31,9;BCS1388054;6;12
001075;06.01.2020;09:30:42;Stop          ;15.02.2018;FEY;;LION;49;14500;7200;192;18;57;60;8400;3000;3769;3764;1;13012;31.44;30.24;33,7;BCS1388054;6;12
001075;06.01.2020;09:50:46;Fastcharge    ;15.02.2018;FEY;;LION;49;14500;7200;192;18;57;60;8400;3000;3780;3775;1;13012;29.74;28.74;32,7;BCS1388054;6;12
001075;06.01.2020;13:06:22;Stop          ;15.02.2018;FEY;;LION;49;14500;7200;224;18;94;100;8400;;4160;4158;1;13012;28.14;27.44;32,1;BCS1388054;6;12

File: 007598.txt
Serialnumber ; Date ; Time ; Action ; Date of Manufacture ; Manufacturer ; Battery Name ; Device-Chemistry ; Specification-Info ; Design-Capacity [mAh] ; Design-Voltage [mV] ; Battery Status ; Cycle Count ; SOC [%] ; Relativ SOC[%] ; Desired Voltage [mV]; Desired Current [mA]; Cell Voltage 1 [mV] ; Cell Voltage 2 [mV] ; Max_Error [%] ; Busvoltage[mV] ; Battery Temperature [°C] ; Charger Temperature [°C] ; Batterysystem ; Case ; PLace
007598;13.12.2019;13:53:33;Fastcharge    ;23.10.2017;FEY;;LION;49;14500;7200;2768;6;;;8400;3000;3014;3017;1;13031;22.34;33.74;35,8;BCS1388054;7;16
007598;13.12.2019;13:55:00;Stop          ;23.10.2017;FEY;;LION;49;14500;7200;144;6;1;1;8400;3000;3247;3182;1;12735;22.74;35.34;36,1;BCS1388054;7;16
007598;13.12.2019;13:55:04;Charge to 10% ;23.10.2017;FEY;;LION;49;14500;7200;144;6;1;1;8400;3000;3252;3187;1;13030;22.84;35.34;36,1;BCS1388054;7;16
007598;13.12.2019;13:55:27;Stop          ;23.10.2017;FEY;;LION;49;14500;7200;144;6;1;1;8400;3000;3089;3086;1;13420;22.94;33.94;36,1;BCS1388054;7;16
007598;13.12.2019;13:55:29;Fastcharge    ;23.10.2017;FEY;;LION;49;14500;7200;144;6;1;1;8400;3000;3089;3086;1;13420;22.94;33.94;36,1;BCS1388054;7;16
007598;13.12.2019;13:55:29;Stop          ;23.10.2017;FEY;;LION;49;14500;7200;144;6;1;1;8400;3000;3089;3086;1;13420;22.94;33.94;36,1;BCS1388054;7;16
007598;13.12.2019;13:55:33;Normalcharge  ;23.10.2017;FEY;;LION;49;14500;7200;144;6;1;1;8400;3000;3089;3086;1;13045;22.94;33.94;36,1;BCS1388054;7;16
007598;13.12.2019;13:55:39;Fastcharge    ;23.10.2017;FEY;;LION;49;14500;7200;144;6;1;1;8400;3000;3074;3077;1;13005;22.94;33.84;36,1;BCS1388054;7;16
007598;13.12.2019;13:55:39;Stop          ;23.10.2017;FEY;;LION;49;14500;7200;144;6;1;1;8400;3000;3074;3077;1;13005;22.94;33.84;36,1;BCS1388054;7;16
007598;13.12.2019;13:56:34;Stop          ;23.10.2017;FEY;;LION;49;14500;7200;144;6;2;2;8400;3000;3266;3202;1;12713;23.24;34.84;36,2;BCS1388054;7;16
007598;13.12.2019;13:56:38;Charge to 95% ;23.10.2017;FEY;;LION;49;14500;7200;144;6;2;2;8400;3000;3272;3208;1;13031;23.24;34.94;36,2;BCS1388054;7;16
007598;13.12.2019;13:56:40;Stop          ;23.10.2017;FEY;;LION;49;14500;7200;144;6;2;2;8400;3000;3272;3208;1;13031;23.24;34.94;36,2;BCS1388054;7;16
007598;13.12.2019;13:56:48;Charge to 90% ;23.10.2017;FEY;;LION;49;14500;7200;144;6;2;2;8400;3000;3110;3111;1;13031;23.24;34.24;36,2;BCS1388054;7;16
007598;13.12.2019;15:42:54;Stop          ;23.10.2017;FEY;;LION;49;14500;7200;128;6;23;25;8400;3000;3607;3560;1;12965;31.04;34.64;34,5;BCS1388054;7;16
007598;13.12.2019;15:42:59;Fastcharge    ;23.10.2017;FEY;;LION;49;14500;7200;128;6;23;25;8400;3000;3607;3560;1;13031;31.04;34.64;34,4;BCS1388054;7;16
007598;13.12.2019;21:04:43;Stop          ;23.10.2017;FEY;;LION;49;14500;7200;224;6;95;100;8400;;4166;4165;1;13031;27.74;28.04;31,7;BCS1388054;7;16

File: 009519.txt
Serialnumber ; Date ; Time ; Action ; Date of Manufacture ; Manufacturer ; Battery Name ; Device-Chemistry ; Specification-Info ; Design-Capacity [mAh] ; Design-Voltage [mV] ; Battery Status ; Cycle Count ; SOC [%] ; Relativ SOC[%] ; Desired Voltage [mV]; Desired Current [mA]; Cell Voltage 1 [mV] ; Cell Voltage 2 [mV] ; Max_Error [%] ; Busvoltage[mV] ; Battery Temperature [°C] ; Charger Temperature [°C] ; Batterysystem ; Case ; PLace
009519;10.12.2019;15:28:54;Charge to 30% ;04.12.2018;FEY;;LION;49;14500;7200;224;51;92;100;8400;;4129;4129;1;13018;22.84;24.24;27,1;BCS1388054;4;17
009519;10.12.2019;20:47:57;Stop          ;04.12.2018;FEY;;LION;49;14500;7200;192;52;29;30;8400;3000;3559;3559;1;13018;34.04;34.24;33,4;BCS1388054;4;17
009519;11.12.2019;08:48:41;Fastcharge    ;04.12.2018;FEY;;LION;49;14500;7200;192;52;29;30;8400;3000;3567;3567;1;13018;26.54;27.84;31,9;BCS1388054;4;17
009519;11.12.2019;13:42:44;Stop          ;04.12.2018;FEY;;LION;49;14500;7200;224;52;94;100;8400;;4160;4160;1;13019;30.44;30.34;31,9;BCS1388054;4;17
009519;11.12.2019;15:46:31;Charge to 10% ;04.12.2018;FEY;;LION;49;14500;7200;224;52;96;100;8400;;4153;4152;1;13018;27.44;28.34;31,4;BCS1388054;4;17
009519;11.12.2019;22:50:44;Stop          ;04.12.2018;FEY;;LION;49;14500;7200;192;53;10;10;8400;3000;3352;3352;1;13017;34.74;34.14;33,2;BCS1388054;4;17
009519;12.12.2019;08:45:03;Normalcharge  ;04.12.2018;FEY;;LION;49;14500;7200;192;53;9;10;8400;3000;3362;3362;1;13018;26.74;28.04;31,9;BCS1388054;4;17
009519;12.12.2019;16:41:48;Stop          ;04.12.2018;FEY;;LION;49;14500;7200;224;53;95;100;8400;;4159;4159;1;13018;29.54;29.94;31,5;BCS1388054;4;17
009519;13.12.2019;10:48:01;Charge to 10% ;04.12.2018;FEY;;LION;49;14500;7200;224;53;95;100;8400;;4148;4148;1;13018;26.74;28.14;32,0;BCS1388054;4;17
009519;13.12.2019;15:42:25;Stop          ;04.12.2018;FEY;;LION;49;14500;7200;192;54;34;36;8400;3000;3499;3551;1;13527;33.44;39.94;34,6;BCS1388054;4;17
009519;13.12.2019;15:42:27;Cycle         ;04.12.2018;FEY;;LION;49;14500;7200;192;54;34;36;8400;3000;3499;3551;1;13016;33.44;39.94;34,6;BCS1388054;4;17
009519;14.12.2019;22:44:28;Stop          ;04.12.2018;FEY;;LION;49;14500;7200;224;55;93;99;8400;;4151;4150;1;13018;26.94;28.04;32,0;BCS1388054;4;17
009519;16.12.2019;07:43:14;Charge to 10% ;04.12.2018;FEY;;LION;49;14500;7200;224;55;93;100;8400;;4145;4145;1;13018;26.54;27.64;31,9;BCS1388054;4;17
009519;16.12.2019;14:36:44;Stop          ;04.12.2018;FEY;;LION;49;14500;7200;192;56;10;10;8400;3000;3365;3365;1;13018;33.14;32.74;32,4;BCS1388054;4;17
009519;16.12.2019;14:44:13;Charge to 90% ;04.12.2018;FEY;;LION;49;14500;7200;192;56;10;10;8400;3000;3367;3367;1;13018;32.54;31.24;31,7;BCS1388054;4;17
009519;16.12.2019;20:50:28;Stop          ;04.12.2018;FEY;;LION;49;14500;7200;192;56;84;90;8400;3000;4054;4054;1;13019;32.14;32.04;31,6;BCS1388054;4;17
009519;17.12.2019;08:37:50;Fastcharge    ;04.12.2018;FEY;;LION;49;14500;7200;192;56;84;90;8400;3000;4045;4045;1;13017;26.64;27.94;31,6;BCS1388054;4;17
009519;17.12.2019;10:31:07;Stop          ;04.12.2018;FEY;;LION;49;14500;7200;224;56;94;100;8400;;4159;4158;1;13018;28.34;29.54;31,4;BCS1388054;4;17
009519;17.12.2019;13:38:32;Charge to 10% ;04.12.2018;FEY;;LION;49;14500;7200;224;56;94;100;8400;;4148;4148;1;13019;26.94;27.84;30,8;BCS1388054;4;17
009519;17.12.2019;20:34:29;Stop          ;04.12.2018;FEY;;LION;49;14500;7200;192;57;10;10;8400;3000;3363;3363;1;13017;34.74;34.24;34,1;BCS1388054;4;17
009519;18.12.2019;08:31:26;Fastcharge    ;04.12.2018;FEY;;LION;49;14500;7200;192;57;10;10;8400;3000;3372;3372;1;13018;26.74;28.04;31,6;BCS1388054;4;17
009519;18.12.2019;14:29:12;Stop          ;04.12.2018;FEY;;LION;49;14500;7200;224;57;94;100;8400;;4161;4161;1;13017;30.54;30.64;31,9;BCS1388054;4;17
009519;19.12.2019;08:23:58;Charge to 60% ;04.12.2018;FEY;;LION;49;14500;7200;224;57;95;100;8400;;4149;4148;1;13019;26.64;27.84;31,6;BCS1388054;4;17
009519;19.12.2019;11:30:18;Stop          ;04.12.2018;FEY;;LION;49;14500;7200;192;58;57;60;8400;3000;3768;3766;1;13017;34.64;35.74;34,6;BCS1388054;4;17
009519;19.12.2019;12:16:45;Cycle         ;04.12.2018;FEY;;LION;49;14500;7200;192;58;57;60;8400;3000;3778;3776;1;13018;31.04;30.54;32,7;BCS1388054;4;17
009519;20.12.2019;17:30:48;Stop          ;04.12.2018;FEY;;LION;49;14500;7200;224;59;93;100;8400;;4151;4151;1;13018;27.04;27.84;30,6;BCS1388054;4;17
009519;06.01.2020;06:34:50;Charge to 60% ;04.12.2018;FEY;;LION;49;14500;7200;224;59;92;99;8400;;4122;4122;1;13020;26.84;28.04;31,9;BCS1388054;4;17
009519;06.01.2020;09:30:33;Stop          ;04.12.2018;FEY;;LION;49;14500;7200;192;59;56;60;8400;3000;3767;3766;1;13018;33.74;34.84;33,7;BCS1388054;4;17
009519;06.01.2020;09:50:38;Fastcharge    ;04.12.2018;FEY;;LION;49;14500;7200;192;59;56;60;8400;3000;3776;3774;1;13018;32.14;31.24;32,7;BCS1388054;4;17
009519;06.01.2020;13:09:19;Stop          ;04.12.2018;FEY;;LION;49;14500;7200;224;59;94;100;8400;;4159;4158;1;13019;30.04;30.04;31,4;BCS1388054;4;17