Folder: Battery_sort_V2/reader/backup_20220209/Batterieverzeichnis (part 4)

File: 009682.txt
Serialnumber ; Date ; Time ; Action ; Date of Manufacture ; Manufacturer ; Battery Name ; Device-Chemistry ; Specification-Info ; Design-Capacity [mAh] ; Design-Voltage [mV] ; Battery Status ; Cycle Count ; SOC [%] ; Relativ SOC[%] ; Desired Voltage [mV]; Desired Current [mA]; Cell Voltage 1 [mV] ; Cell Voltage 2 [mV] ; Max_Error [%] ; Busvoltage[mV] ; Battery Temperature [°C] ; Charger Temperature [°C] ; Batterysystem ; Case ; PLace
009682;07.02.2021;08:46:49;Normalcharge  ;04.12.2018;FEY;;LION;49;14500;7200;192;3;93;96;8400;;4095;4094;1;13000;23.64;26.44;29,2;BCS1388054;2;10
009682;07.02.2021;11:52:12;Stop          ;04.12.2018;FEY;;LION;49;14500;7200;192;3;93;96;8400;;4096;4095;1;13000;25.94;27.74;29,7;BCS1388054;2;10
009682;03.03.2021;08:17:40;Normalcharge  ;04.12.2018;FEY;;LION;49;14500;7200;192;3;65;67;8400;3000;3828;3826;1;12999;23.24;23.84;23,6;BCS1388054;6;18
009682;03.03.2021;11:56:52;Stop          ;04.12.2018;FEY;;LION;49;14500;7200;224;3;97;100;8400;;4161;4160;1;12992;28.04;29.84;31,7;BCS1388054;6;18
009682;04.04.2021;11:50:28;Normalcharge  ;04.12.2018;FEY;;LION;49;14500;7200;192;4;60;62;8400;3000;3766;3764;1;13004;25.14;25.34;27,9;BCS1388054;3;16
009682;04.04.2021;11:51:43;Stop           ;04.12.2018;FEY;;LION;49;14500;7200;128;4;60;62;8400;3000;3858;3810;1;12764;25.14;27.74;28,6;BCS1388054;3;16
009682;05.04.2021;09:37:37;Charge to 60% ;04.12.2018;FEY;;LION;49;14500;7200;192;4;60;62;8400;3000;3770;3768;1;12993;25.24;25.94;26,0;BCS1388054;1;1
009682;05.04.2021;10:01:53;Stop          ;04.12.2018;FEY;;LION;49;14500;7200;192;4;59;60;8400;3000;3742;3740;1;12992;26.14;28.84;31,2;BCS1388054;1;1
009682;22.08.2021;11:07:51;Normalcharge  ;04.12.2018;FEY;;LION;49;14500;7200;192;4;41;43;8400;3000;3608;3607;1;13000;22.74;29.24;32,0;BCS1388054;1;13
009682;22.08.2021;11:08:24;Stop          ;04.12.2018;FEY;;LION;49;14500;7200;128;4;41;43;8400;3000;3661;3631;1;12601;22.84;30.44;32,4;BCS1388054;1;13
009682;25.08.2021;08:15:02;Charge to 60% ;04.12.2018;FEY;;LION;49;14500;7200;192;4;41;42;8400;3000;3610;3609;1;13001;30.34;31.54;33,2;BCS1388054;5;11
009682;25.08.2021;13:03:31;Stop          ;04.12.2018;FEY;;LION;49;14500;7200;192;4;58;60;8400;3000;3735;3734;1;12999;32.84;33.74;36,6;BCS1388054;5;11
009682;28.12.2021;09:01:33;Normalcharge  ;04.12.2018;FEY;;LION;49;14500;7200;192;4;27;28;8400;3000;3517;3515;1;13001;23.84;24.14;25,4;BCS1388054;5;14
009682;28.12.2021;09:02:46;Stop          ;04.12.2018;FEY;;LION;49;14500;7200;128;4;27;28;8400;3000;3608;3559;1;12649;23.84;27.64;26,0;BCS1388054;5;14

File: 009693.txt
Serialnumber ; Date ; Time ; Action ; Date of Manufacture ; Manufacturer ; Battery Name ; Device-Chemistry ; Specification-Info ; Design-Capacity [mAh] ; Design-Voltage [mV] ; Battery Status ; Cycle Count ; SOC [%] ; Relativ SOC[%] ; Desired Voltage [mV]; Desired Current [mA]; Cell Voltage 1 [mV] ; Cell Voltage 2 [mV] ; Max_Error [%] ; Busvoltage[mV] ; Battery Temperature [°C] ; Charger Temperature [°C] ; Batterysystem ; Case ; PLace
009693;10.12.2019;15:28:47;Ladung auf 30% ;04.12.2018;FEY;;LION;49;14500;7200;224;46;93;100;8400;;4131;4130;1;13010;22.94;23.84;27,1;BCS1388054;3;6
009693;10.12.2019;20:47:21;Stop           ;04.12.2018;FEY;;LION;49;14500;7200;192;46;29;30;8400;3000;3556;3556;1;13010;33.24;31.34;33,5;BCS1388054;3;6
009693;11.12.2019;08:48:36;Fastcharge    ;04.12.2018;FEY;;LION;49;14500;7200;192;46;29;30;8400;3000;3566;3566;1;13008;26.44;26.64;31,9;BCS1388054;3;6
009693;11.12.2019;13:39:41;Stop           ;04.12.2018;FEY;;LION;49;14500;7200;224;46;94;100;8400;;4161;4163;1;13010;29.54;28.54;32,5;BCS1388054;3;6
009693;11.12.2019;15:46:24;Ladung auf 10% ;04.12.2018;FEY;;LION;49;14500;7200;224;46;96;100;8400;;4153;4154;1;13010;27.14;26.94;31,4;BCS1388054;3;6
009693;11.12.2019;22:48:44;Stop           ;04.12.2018;FEY;;LION;49;14500;7200;192;48;10;10;8400;3000;3350;3350;1;13009;33.84;31.64;33,6;BCS1388054;3;6
009693;12.12.2019;08:44:58;Normalcharge  ;04.12.2018;FEY;;LION;49;14500;7200;192;48;9;10;8400;3000;3361;3362;1;13009;26.64;26.74;31,9;BCS1388054;3;6
009693;12.12.2019;16:39:24;Stop           ;04.12.2018;FEY;;LION;49;14500;7200;224;48;96;100;8400;;4161;4161;1;13009;28.84;28.04;31,7;BCS1388054;3;6
009693;13.12.2019;10:47:57;Ladung auf 10% ;04.12.2018;FEY;;LION;49;14500;7200;224;48;96;100;8400;;4148;4148;1;13008;26.64;26.94;32,0;BCS1388054;3;6
009693;13.12.2019;15:42:18;Stop           ;04.12.2018;FEY;;LION;49;14500;7200;192;48;35;37;8400;3000;3501;3551;1;13550;32.54;33.64;34,6;BCS1388054;3;6
009693;13.12.2019;15:42:20;Cycle          ;04.12.2018;FEY;;LION;49;14500;7200;192;48;35;37;8400;3000;3501;3551;1;13550;32.54;33.64;34,6;BCS1388054;3;6
009693;14.12.2019;22:36:33;Stop           ;04.12.2018;FEY;;LION;49;14500;7200;224;50;93;99;8400;;4151;4152;1;13009;26.64;26.74;31,6;BCS1388054;3;6
009693;16.12.2019;07:43:10;Ladung auf 10% ;04.12.2018;FEY;;LION;49;14500;7200;224;50;94;100;8400;;4145;4146;1;13009;26.34;26.44;31,9;BCS1388054;3;6
009693;16.12.2019;14:34:27;Stop           ;04.12.2018;FEY;;LION;49;14500;7200;192;51;10;10;8400;3000;3361;3361;1;13009;32.44;30.34;32,5;BCS1388054;3;6
009693;16.12.2019;14:44:07;Ladung auf 90% ;04.12.2018;FEY;;LION;49;14500;7200;192;51;10;10;8400;3000;3365;3366;1;13010;31.74;29.24;31,7;BCS1388054;3;6
009693;16.12.2019;20:48:39;Stop           ;04.12.2018;FEY;;LION;49;14500;7200;192;51;84;90;8400;3000;4061;4061;1;13010;31.34;29.34;31,9;BCS1388054;3;6
009693;17.12.2019;08:37:44;Fastcharge    ;04.12.2018;FEY;;LION;49;14500;7200;192;51;84;90;8400;3000;4047;4047;1;13009;26.44;26.64;31,5;BCS1388054;3;6
009693;17.12.2019;10:30:44;Stop           ;04.12.2018;FEY;;LION;49;14500;7200;224;51;95;100;8400;;4160;4159;1;13010;27.84;27.44;31,4;BCS1388054;3;6
009693;17.12.2019;13:38:28;Ladung auf 10% ;04.12.2018;FEY;;LION;49;14500;7200;224;51;95;100;8400;;4150;4149;1;13010;26.74;26.74;30,8;BCS1388054;3;6
009693;17.12.2019;20:32:04;Stop           ;04.12.2018;FEY;;LION;49;14500;7200;192;52;10;10;8400;3000;3361;3360;1;13010;33.84;31.84;34,6;BCS1388054;3;6
009693;18.12.2019;08:31:22;Fastcharge    ;04.12.2018;FEY;;LION;49;14500;7200;192;52;10;10;8400;3000;3372;3372;1;13010;26.54;26.64;31,6;BCS1388054;3;6
009693;18.12.2019;14:26:33;Stop           ;04.12.2018;FEY;;LION;49;14500;7200;224;52;95;100;8400;;4161;4160;1;13011;29.54;28.54;32,5;BCS1388054;3;6
009693;19.12.2019;08:23:54;Ladung auf 60% ;04.12.2018;FEY;;LION;49;14500;7200;224;52;95;100;8400;;4148;4147;1;13009;26.44;26.64;31,6;BCS1388054;3;6
009693;19.12.2019;11:28:29;Stop           ;04.12.2018;FEY;;LION;49;14500;7200;192;52;58;60;8400;3000;3763;3760;1;13009;33.84;32.54;35,1;BCS1388054;3;6
009693;19.12.2019;12:16:41;Cycle          ;04.12.2018;FEY;;LION;49;14500;7200;192;52;58;60;8400;3000;3778;3775;1;13010;30.04;28.64;32,7;BCS1388054;3;6
009693;20.12.2019;17:23:28;Stop           ;04.12.2018;FEY;;LION;49;14500;7200;224;54;94;100;8400;;4151;4152;1;13009;26.74;26.84;31,9;BCS1388054;3;6
009693;06.01.2020;06:34:46;Ladung auf 60% ;04.12.2018;FEY;;LION;49;14500;7200;224;54;93;99;8400;;4122;4122;1;13010;26.54;26.64;31,9;BCS1388054;3;6
009693;06.01.2020;09:29:20;Stop           ;04.12.2018;FEY;;LION;49;14500;7200;192;54;57;60;8400;3000;3761;3760;1;13010;33.04;31.74;34,2;BCS1388054;3;6
009693;06.01.2020;09:50:34;Fastcharge    ;04.12.2018;FEY;;LION;49;14500;7200;192;54;57;60;8400;3000;3775;3774;1;13010;31.34;29.44;32,7;BCS1388054;3;6
009693;06.01.2020;13:06:26;Stop           ;04.12.2018;FEY;;LION;49;14500;7200;224;54;94;100;8400;;4159;4161;1;13011;29.14;28.04;32,1;BCS1388054;3;6

File: 009710.txt
Serialnumber ; Date ; Time ; Action ; Date of Manufacture ; Manufacturer ; Battery Name ; Device-Chemistry ; Specification-Info ; Design-Capacity [mAh] ; Design-Voltage [mV] ; Battery Status ; Cycle Count ; SOC [%] ; Relativ SOC[%] ; Desired Voltage [mV]; Desired Current [mA]; Cell Voltage 1 [mV] ; Cell Voltage 2 [mV] ; Max_Error [%] ; Busvoltage[mV] ; Battery Temperature [°C] ; Charger Temperature [°C] ; Batterysystem ; Case ; PLace
009710;07.12.2020;04:14:40;Cycle         ;04.12.2018;FEY;;LION;49;14500;7200;192;2;97;96;8400;;4120;4120;1;13016;25.84;27.54;30,3;BCS1388054;7;10
009710;08.12.2020;16:20:20;Stop          ;04.12.2018;FEY;;LION;49;14500;7200;192;2;98;96;8400;;4118;4118;1;13017;27.74;28.84;31,9;BCS1388054;7;10
009710;12.01.2021;04:17:47;Charge to 90% ;04.12.2018;FEY;;LION;49;14500;7200;192;3;91;89;8400;3000;4046;4046;1;13014;23.24;23.64;23,8;BCS1388054;7;9
009710;12.01.2021;04:57:20;Stop          ;04.12.2018;FEY;;LION;49;14500;7200;192;3;91;90;8400;3000;4047;4047;1;13009;25.64;28.54;31,5;BCS1388054;7;9
009710;12.01.2021;05:22:01;Cycle         ;04.12.2018;FEY;;LION;49;14500;7200;192;3;91;90;8400;3000;4047;4047;1;13009;26.44;27.24;30,4;BCS1388054;7;9
009710;13.01.2021;08:19:29;Stop          ;04.12.2018;FEY;;LION;49;14500;7200;224;4;98;100;8400;;4155;4156;1;13011;26.84;27.34;30,7;BCS1388054;7;9
009710;21.02.2021;13:45:29;Normalcharge  ;04.12.2018;FEY;;LION;49;14500;7200;192;5;39;40;8400;3000;3599;3599;1;12999;23.04;23.64;27,8;BCS1388054;6;18
009710;06.04.2021;08:38:40;Normalcharge  ;04.12.2018;FEY;;LION;49;14500;7200;224;5;98;99;8400;;4127;4126;1;13011;21.54;26.04;28,1;BCS1388054;1;6
009710;06.04.2021;08:39:29;Stop          ;04.12.2018;FEY;;LION;49;14500;7200;224;5;98;99;8400;;4127;4126;1;13010;21.64;26.44;28,2;BCS1388054;1;6
009710;08.04.2021;07:57:52;Normalcharge  ;04.12.2018;FEY;;LION;49;14500;7200;224;5;98;99;8400;;4127;4126;1;13012;25.44;26.14;26,3;BCS1388054;1;6
009710;08.04.2021;07:59:50;Stop          ;04.12.2018;FEY;;LION;49;14500;7200;224;5;98;99;8400;;4127;4126;1;12950;25.44;26.74;26,8;BCS1388054;1;6
009710;08.04.2021;10:34:34;Normalcharge  ;04.12.2018;FEY;;LION;49;14500;7200;224;5;98;99;8400;;4127;4126;1;13007;26.24;27.24;28,1;BCS1388054;1;6
009710;08.04.2021;10:36:49;Stop          ;04.12.2018;FEY;;LION;49;14500;7200;224;5;98;99;8400;;4127;4126;1;12891;26.24;27.54;28,9;BCS1388054;1;6
009710;18.04.2021;08:33:24;Normalcharge  ;04.12.2018;FEY;;LION;49;14500;7200;192;5;97;98;8400;;4123;4122;1;13009;26.44;27.34;27,7;BCS1388054;1;6
009710;18.04.2021;08:33:29;Stop          ;04.12.2018;FEY;;LION;49;14500;7200;192;5;97;98;8400;;4123;4122;1;13007;26.44;27.44;27,7;BCS1388054;1;6
009710;04.08.2021;07:25:01;Normalcharge  ;04.12.2018;FEY;;LION;49;14500;7200;192;5;95;96;8400;;4091;4090;1;13002;30.74;31.84;31,5;BCS1388054;1;6
009710;04.08.2021;07:25:57;Stop          ;04.12.2018;FEY;;LION;49;14500;7200;192;5;95;96;8400;;4091;4090;1;12789;30.74;31.94;31,9;BCS1388054;1;6
009710;22.08.2021;11:07:59;Normalcharge  ;04.12.2018;FEY;;LION;49;14500;7200;192;5;72;73;8400;3000;3869;3869;1;12989;22.64;29.94;32,1;BCS1388054;3;8
009710;22.08.2021;11:08:33;Stop           ;04.12.2018;FEY;;LION;49;14500;7200;128;5;72;73;8400;3000;3928;3895;1;12686;22.74;31.04;32,4;BCS1388054;3;8
009710;12.10.2021;12:59:04;Normalcharge  ;04.12.2018;FEY;;LION;49;14500;7200;192;5;69;70;8400;3000;3836;3836;1;13018;23.74;26.74;28,5;BCS1388054;7;7
009710;12.10.2021;12:59:37;Stop          ;04.12.2018;FEY;;LION;49;14500;7200;128;5;69;70;8400;3000;3855;3846;1;12940;23.84;28.04;28,6;BCS1388054;7;7
009710;14.10.2021;12:40:07;Normalcharge  ;04.12.2018;FEY;;LION;49;14500;7200;192;5;69;70;8400;3000;3836;3835;1;13006;25.44;25.94;27,9;BCS1388054;4;8
009710;14.10.2021;12:41:43;Stop          ;04.12.2018;FEY;;LION;49;14500;7200;128;5;70;70;8400;3000;3928;3882;1;12669;25.44;29.64;28,4;BCS1388054;4;8

File: 009742.txt
Serialnumber ; Date ; Time ; Action ; Date of Manufacture ; Manufacturer ; Battery Name ; Device-Chemistry ; Specification-Info ; Design-Capacity [mAh] ; Design-Voltage [mV] ; Battery Status ; Cycle Count ; SOC [%] ; Relativ SOC[%] ; Desired Voltage [mV]; Desired Current [mA]; Cell Voltage 1 [mV] ; Cell Voltage 2 [mV] ; Max_Error [%] ; Busvoltage[mV] ; Battery Temperature [°C] ; Charger Temperature [°C] ; Batterysystem ; Case ; PLace
009742;01.12.2020;07:00:16;Cycle         ;04.12.2018;FEY;;LION;49;14500;7200;16576;3;98;100;;;4144;4143;1;13000;25.74;25.34;26,7;BCS1388054;1;4
009742;01.12.2020;11:17:17;Stop          ;04.12.2018;FEY;;LION;49;14500;7200;16576;3;98;100;;;4143;4142;1;12994;26.94;27.64;28,8;BCS1388054;1;4
009742;12.01.2021;04:17:40;Charge to 90% ;04.12.2018;FEY;;LION;49;14500;7200;16576;3;96;99;;;4126;4125;1;13009;23.34;22.84;23,6;BCS1388054;6;5
009742;12.01.2021;05:00:55;Stop          ;04.12.2018;FEY;;LION;49;14500;7200;192;3;83;90;8400;3000;4039;4036;1;13003;27.84;27.34;31,2;BCS1388054;6;5
009742;12.01.2021;05:21:57;Cycle         ;04.12.2018;FEY;;LION;49;14500;7200;192;3;83;90;8400;3000;4045;4043;1;13004;27.54;26.34;30,4;BCS1388054;6;5
009742;13.01.2021;08:31:18;Stop          ;04.12.2018;FEY;;LION;49;14500;7200;224;5;95;100;8400;;4154;4154;1;13004;27.04;26.44;31,1;BCS1388054;6;5
009742;21.02.2021;13:43:49;Normalcharge  ;04.12.2018;FEY;;LION;49;14500;7200;224;5;94;99;8400;;4131;4130;1;13007;23.14;22.34;27,7;BCS1388054;3;16
009742;21.02.2021;20:44:52;Stop           ;04.12.2018;FEY;;LION;49;14500;7200;224;5;94;99;8400;;4131;4130;1;13001;26.94;26.84;31,2;BCS1388054;3;16
009742;06.04.2021;08:39:16;Normalcharge  ;04.12.2018;FEY;;LION;49;14500;7200;192;5;93;98;8400;;4115;4115;1;13016;21.64;26.04;28,1;BCS1388054;6;15
009742;06.04.2021;08:40:04;Stop          ;04.12.2018;FEY;;LION;49;14500;7200;192;5;93;98;8400;;4115;4114;1;12995;21.74;26.24;28,5;BCS1388054;6;15
009742;08.04.2021;07:58:44;Normalcharge  ;04.12.2018;FEY;;LION;49;14500;7200;192;5;93;98;8400;;4115;4115;1;13020;25.44;25.54;26,4;BCS1388054;6;15
009742;08.04.2021;07:59:23;Stop          ;04.12.2018;FEY;;LION;49;14500;7200;192;5;93;98;8400;;4115;4115;1;13018;25.44;26.14;26,7;BCS1388054;6;15
009742;08.04.2021;10:36:16;Normalcharge  ;04.12.2018;FEY;;LION;49;14500;7200;192;5;93;98;8400;;4115;4114;1;13017;25.64;26.74;28,6;BCS1388054;6;15
009742;08.04.2021;10:37:11;Stop          ;04.12.2018;FEY;;LION;49;14500;7200;192;5;93;98;8400;;4115;4114;1;12995;25.64;27.14;29,2;BCS1388054;6;15
009742;18.04.2021;08:34:33;Normalcharge  ;04.12.2018;FEY;;LION;49;14500;7200;192;5;93;97;8400;;4112;4111;1;13016;26.34;27.54;28,2;BCS1388054;6;15
009742;18.04.2021;08:34:41;Stop          ;04.12.2018;FEY;;LION;49;14500;7200;192;5;93;97;8400;;4112;4111;1;13015;26.34;27.64;28,2;BCS1388054;6;15
009742;04.08.2021;07:24:35;Normalcharge  ;04.12.2018;FEY;;LION;49;14500;7200;192;5;91;96;8400;;4084;4084;1;13011;30.44;31.14;31,5;BCS1388054;6;15
009742;04.08.2021;07:25:17;Stop          ;04.12.2018;FEY;;LION;49;14500;7200;192;5;91;96;8400;;4084;4084;1;12995;30.44;31.54;31,6;BCS1388054;6;15
009742;22.08.2021;11:37:21;Normalcharge  ;04.12.2018;FEY;;LION;49;14500;7200;192;5;87;90;8400;3000;4036;4034;1;12996;21.64;28.04;31,9;BCS1388054;5;14
009742;22.08.2021;11:38:04;Stop          ;04.12.2018;FEY;;LION;49;14500;7200;128;5;87;90;8400;3000;4101;4069;1;12758;21.84;29.64;32,0;BCS1388054;5;14
009742;14.10.2021;12:40:22;Normalcharge  ;04.12.2018;FEY;;LION;49;14500;7200;192;5;42;43;8400;3000;3612;3610;1;13033;23.74;25.64;28,1;BCS1388054;7;14
009742;14.10.2021;12:42:05;Stop          ;04.12.2018;FEY;;LION;49;14500;7200;128;5;42;44;8400;3000;3703;3655;1;12733;23.84;29.84;28,5;BCS1388054;7;14
009742;01.11.2021;09:51:48;Normalcharge  ;04.12.2018;FEY;;LION;49;14500;7200;192;5;42;43;8400;3000;3612;3611;1;13036;26.14;25.34;26,3;BCS1388054;7;14
009742;01.11.2021;09:53:51;Stop          ;04.12.2018;FEY;;LION;49;14500;7200;128;5;42;44;8400;3000;3702;3653;1;12677;26.24;29.94;27,4;BCS1388054;7;14
009742;01.11.2021;10:02:29;Normalcharge  ;04.12.2018;FEY;;LION;49;14500;7200;192;5;42;44;8400;3000;3615;3613;1;13030;26.34;27.64;29,5;BCS1388054;7;14
009742;01.11.2021;10:03:04;Stop          ;04.12.2018;FEY;;LION;49;14500;7200;128;5;42;44;8400;3000;3677;3640;1;12704;26.34;28.94;29,3;BCS1388054;7;14
009742;01.11.2021;10:27:23;Normalcharge  ;04.12.2018;FEY;;LION;49;14500;7200;192;5;42;44;8400;3000;3615;3613;1;13033;26.54;26.14;27,7;BCS1388054;7;14
009742;01.11.2021;10:29:22;Stop          ;04.12.2018;FEY;;LION;49;14500;7200;128;5;42;44;8400;3000;3704;3655;1;12678;26.64;30.64;28,6;BCS1388054;7;14
009742;01.11.2021;10:32:51;Charge to 60% ;04.12.2018;FEY;;LION;49;14500;7200;192;5;42;44;8400;3000;3618;3617;1;13032;26.74;28.04;29,7;BCS1388054;7;14
009742;01.11.2021;11:46:27;Stop          ;04.12.2018;FEY;;LION;49;14500;7200;128;5;58;60;8400;3000;3833;3783;1;13031;30.34;35.54;32,5;BCS1388054;7;14

File: 009824.txt
Serialnumber ; Date ; Time ; Action ; Date of Manufacture ; Manufacturer ; Battery Name ; Device-Chemistry ; Specification-Info ; Design-Capacity [mAh] ; Design-Voltage [mV] ; Battery Status ; Cycle Count ; SOC [%] ; Relativ SOC[%] ; Desired Voltage [mV]; Desired Current [mA]; Cell Voltage 1 [mV] ; Cell Voltage 2 [mV] ; Max_Error [%] ; Busvoltage[mV] ; Battery Temperature [°C] ; Charger Temperature [°C] ; Batterysystem ; Case ; PLace
009824;12.01.2021;04:17:28;Ladung auf 90% ;04.12.2018;FEY;;LION;49;14500;7200;16576;2;97;98;;;4138;4138;1;13006;23.14;23.54;23,6;BCS1388054;3;12
009824;12.01.2021;04:57:30;Stop           ;04.12.2018;FEY;;LION;49;14500;7200;192;2;90;90;8400;3000;4056;4056;1;13001;28.14;28.64;31,5;BCS1388054;3;12
009824;12.01.2021;05:21:45;Cycle          ;04.12.2018;FEY;;LION;49;14500;7200;192;2;90;90;8400;3000;4063;4063;1;13002;27.54;27.44;30,4;BCS1388054;3;12
009824;13.01.2021;08:23:25;Stop           ;04.12.2018;FEY;;LION;49;14500;7200;224;3;96;100;8400;;4155;4155;1;13002;27.04;27.44;31,4;BCS1388054;3;12
009824;21.02.2021;13:45:29;Normalcharge  ;04.12.2018;FEY;;LION;49;14500;7200;192;3;63;65;8400;3000;3804;3803;1;13000;23.24;22.44;27,8;BCS1388054;6;6
009824;06.04.2021;08:38:50;Normalcharge  ;04.12.2018;FEY;;LION;49;14500;7200;224;3;95;99;8400;;4128;4128;1;13010;20.64;25.94;28,1;BCS1388054;3;13
009824;06.04.2021;08:39:42;Stop           ;04.12.2018;FEY;;LION;49;14500;7200;224;3;95;99;8400;;4128;4128;1;13007;20.74;26.14;28,2;BCS1388054;3;13
009824;08.04.2021;07:58:01;Normalcharge  ;04.12.2018;FEY;;LION;49;14500;7200;224;3;95;99;8400;;4128;4128;1;13016;25.34;26.14;26,4;BCS1388054;3;13
009824;08.04.2021;07:59:40;Stop           ;04.12.2018;FEY;;LION;49;14500;7200;224;3;95;99;8400;;4128;4128;1;13012;25.34;26.74;26,8;BCS1388054;3;13
009824;08.04.2021;10:35:05;Normalcharge  ;04.12.2018;FEY;;LION;49;14500;7200;224;3;95;99;8400;;4129;4128;1;13011;25.74;26.54;28,1;BCS1388054;3;13
009824;08.04.2021;10:36:56;Stop           ;04.12.2018;FEY;;LION;49;14500;7200;224;3;95;99;8400;;4128;4128;1;13009;25.74;27.14;29,0;BCS1388054;3;13
009824;18.04.2021;08:33:50;Normalcharge  ;04.12.2018;FEY;;LION;49;14500;7200;224;3;95;99;8400;;4125;4124;1;13012;26.24;27.54;27,8;BCS1388054;3;13
009824;18.04.2021;08:33:58;Stop           ;04.12.2018;FEY;;LION;49;14500;7200;224;3;95;99;8400;;4125;4124;1;13013;26.24;27.54;27,9;BCS1388054;3;13
009824;04.08.2021;07:24:50;Normalcharge  ;04.12.2018;FEY;;LION;49;14500;7200;192;3;92;96;8400;;4093;4093;1;13003;30.44;31.74;31,6;BCS1388054;3;13
009824;04.08.2021;07:25:37;Stop           ;04.12.2018;FEY;;LION;49;14500;7200;192;3;92;96;8400;;4093;4093;1;13001;30.54;32.04;31,7;BCS1388054;3;13
009824;22.08.2021;11:37:13;Normalcharge  ;04.12.2018;FEY;;LION;49;14500;7200;192;3;92;96;8400;;4089;4088;1;13025;23.24;29.14;31,9;BCS1388054;7;4
009824;22.08.2021;11:37:48;Stop          ;04.12.2018;FEY;;LION;49;14500;7200;192;3;92;96;8400;;4088;4088;1;13005;23.34;29.44;31,9;BCS1388054;7;4
009824;14.10.2021;12:40:22;Normalcharge  ;04.12.2018;FEY;;LION;49;14500;7200;192;3;85;89;8400;3000;4026;4026;1;13026;23.74;26.14;28,1;BCS1388054;7;18
009824;14.10.2021;12:42:05;Stop          ;04.12.2018;FEY;;LION;49;14500;7200;128;3;85;89;8400;3000;4112;4074;1;12722;24.04;29.44;28,5;BCS1388054;7;18
009824;28.12.2021;09:01:29;Normalcharge  ;04.12.2018;FEY;;LION;49;14500;7200;192;3;66;68;8400;3000;3828;3827;1;13002;23.54;23.94;25,4;BCS1388054;4;14
009824;28.12.2021;09:02:38;Stop          ;04.12.2018;FEY;;LION;49;14500;7200;128;3;66;68;8400;3000;3919;3872;1;12584;23.64;27.14;25,8;BCS1388054;4;14

File: 009853.txt
Serialnumber ; Date ; Time ; Action ; Date of Manufacture ; Manufacturer ; Battery Name ; Device-Chemistry ; Specification-Info ; Design-Capacity [mAh] ; Design-Voltage [mV] ; Battery Status ; Cycle Count ; SOC [%] ; Relativ SOC[%] ; Desired Voltage [mV]; Desired Current [mA]; Cell Voltage 1 [mV] ; Cell Voltage 2 [mV] ; Max_Error [%] ; Busvoltage[mV] ; Battery Temperature [°C] ; Charger Temperature [°C] ; Batterysystem ; Case ; PLace
009853;07.12.2020;04:14:40;Cycle         ;04.12.2018;FEY;;LION;49;14500;7200;16576;2;94;95;;;4094;4095;1;13033;25.64;27.14;30,3;BCS1388054;7;14
009853;08.12.2020;16:20:20;Stop          ;04.12.2018;FEY;;LION;49;14500;7200;16576;2;94;95;;;4094;4094;1;13031;27.74;28.54;31,9;BCS1388054;7;14
009853;07.02.2021;08:47:07;Normalcharge  ;04.12.2018;FEY;;LION;49;14500;7200;192;2;84;85;8400;3000;4000;4001;1;13005;23.54;26.04;29,2;BCS1388054;5;3
009853;07.02.2021;11:50:11;Stop          ;04.12.2018;FEY;;LION;49;14500;7200;224;2;99;100;8400;;4153;4153;1;13004;25.84;27.54;30,0;BCS1388054;5;3
009853;03.03.2021;08:17:17;Normalcharge  ;04.12.2018;FEY;;LION;49;14500;7200;192;2;93;95;8400;3000;4091;4091;1;13014;23.14;24.24;23,5;BCS1388054;2;5
009853;04.03.2021;07:53:46;Stop          ;04.12.2018;FEY;;LION;49;14500;7200;224;2;98;100;8400;;4147;4147;1;13007;26.34;28.04;31,6;BCS1388054;2;5
009853;04.04.2021;11:50:22;Normalcharge  ;04.12.2018;FEY;;LION;49;14500;7200;192;3;53;55;8400;3000;3697;3697;1;13016;24.94;26.04;27,9;BCS1388054;4;4
009853;04.04.2021;11:51:36;Stop          ;04.12.2018;FEY;;LION;49;14500;7200;128;3;53;55;8400;3000;3784;3737;1;12738;24.94;28.94;28,6;BCS1388054;4;4
009853;05.04.2021;09:38:00;Ladung auf 60% ;04.12.2018;FEY;;LION;49;14500;7200;192;3;53;55;8400;3000;3699;3699;1;13019;25.14;25.44;26,3;BCS1388054;3;14
009853;05.04.2021;10:06:07;Stop           ;04.12.2018;FEY;;LION;49;14500;7200;192;3;58;60;8400;3000;3764;3760;1;13014;27.14;29.94;31,4;BCS1388054;3;14
009853;22.08.2021;11:08:13;Normalcharge  ;04.12.2018;FEY;;LION;49;14500;7200;192;3;54;55;8400;3000;3703;3702;1;12994;29.94;29.74;32,2;BCS1388054;6;6
009853;22.08.2021;11:08:46;Stop          ;04.12.2018;FEY;;LION;49;14500;7200;128;3;54;55;8400;3000;3735;3716;1;12804;29.94;30.74;32,5;BCS1388054;6;6
009853;25.08.2021;08:13:04;Normalcharge  ;04.12.2018;FEY;;LION;49;14500;7200;192;3;53;55;8400;3000;3694;3694;1;13022;30.44;32.24;32,4;BCS1388054;7;8
009853;25.08.2021;08:13:16;Stop          ;04.12.2018;FEY;;LION;49;14500;7200;192;3;53;55;8400;3000;3694;3694;1;13012;30.44;32.54;32,5;BCS1388054;7;8
009853;25.08.2021;08:14:41;Charge to 60% ;04.12.2018;FEY;;LION;49;14500;7200;192;3;53;55;8400;3000;3695;3694;1;13021;30.44;32.54;33,0;BCS1388054;7;8
009853;25.08.2021;08:37:46;Stop          ;04.12.2018;FEY;;LION;49;14500;7200;128;3;57;59;8400;3000;3849;3797;1;12758;32.34;40.04;36,1;BCS1388054;7;8
009853;25.08.2021;08:38:03;Charge to 60% ;04.12.2018;FEY;;LION;49;14500;7200;128;3;58;59;8400;3000;3767;3767;1;13019;32.34;39.04;36,1;BCS1388054;7;8
009853;25.08.2021;13:26:36;Stop          ;04.12.2018;FEY;;LION;49;14500;7200;192;3;58;60;8400;3000;3754;3751;1;13020;32.84;34.84;36,4;BCS1388054;7;8
009853;01.11.2021;09:52:10;Normalcharge  ;04.12.2018;FEY;;LION;49;14500;7200;192;3;51;53;8400;3000;3678;3678;1;13003;24.44;24.64;26,4;BCS1388054;3;7
009853;01.11.2021;09:53:26;Stop           ;04.12.2018;FEY;;LION;49;14500;7200;128;3;51;53;8400;3000;3767;3721;1;12622;24.54;27.84;27,1;BCS1388054;3;7
009853;01.11.2021;10:02:09;Normalcharge  ;04.12.2018;FEY;;LION;49;14500;7200;192;3;51;53;8400;3000;3681;3681;1;12997;24.84;27.14;29,5;BCS1388054;3;7
009853;01.11.2021;10:03:20;Stop           ;04.12.2018;FEY;;LION;49;14500;7200;128;3;51;53;8400;3000;3769;3724;1;12615;24.94;29.64;29,5;BCS1388054;3;7
009853;01.11.2021;10:18:16;Normalcharge  ;04.12.2018;FEY;;LION;49;14500;7200;192;3;51;53;8400;3000;3683;3683;1;13000;25.24;26.34;28,2;BCS1388054;3;7
009853;01.11.2021;10:18:56;Stop           ;04.12.2018;FEY;;LION;49;14500;7200;128;3;51;53;8400;3000;3762;3716;1;12636;25.34;27.84;28,2;BCS1388054;3;7
009853;01.11.2021;10:27:50;Normalcharge  ;04.12.2018;FEY;;LION;49;14500;7200;192;3;51;53;8400;3000;3684;3684;1;13000;25.44;26.54;27,8;BCS1388054;3;7
009853;01.11.2021;10:29:05;Stop           ;04.12.2018;FEY;;LION;49;14500;7200;128;3;52;53;8400;3000;3770;3725;1;12579;25.54;29.44;28,5;BCS1388054;3;7
009853;01.11.2021;10:32:24;Ladung auf 60% ;04.12.2018;FEY;;LION;49;14500;7200;192;3;52;53;8400;3000;3686;3686;1;12998;25.64;27.54;29,7;BCS1388054;3;7
009853;01.11.2021;15:19:46;Stop           ;04.12.2018;FEY;;LION;49;14500;7200;192;3;58;60;8400;3000;3755;3753;1;12998;29.04;30.24;32,7;BCS1388054;3;7