Folder: Battery_sort_V2/reader/backup_20220209/Batterieverzeichnis

Note: reader/backup_20220209/Batterieverzeichnis/007651.txt
Serialnumber ; Date ; Time ; Action ; Date of Manufacture ; Manufacturer ; Battery Name ; Device-Chemistry ; Specification-Info ; Design-Capacity [mAh] ; Design-Voltage [mV] ; Battery Status ; Cycle Count ; SOC [%] ; Relativ SOC[%] ; Desired Voltage [mV]; Desired Current [mA]; Cell Voltage 1 [mV] ; Cell Voltage 2 [mV] ; Max_Error [%] ; Busvoltage[mV] ; Battery Temperature [°C] ; Charger Temperature [°C] ; Batterysystem ; Case ; PLace
007651;13.12.2019;13:53:13;Fastcharge    ;19.10.2017;FEY;;LION;49;14500;7200;192;32;27;29;8400;3000;3558;3554;1;12992;21.94;36.44;35,8;BCS1388054;6;16
007651;13.12.2019;13:53:19;Stop          ;19.10.2017;FEY;;LION;49;14500;7200;192;32;27;29;8400;3000;3558;3554;1;12982;21.94;36.24;35,8;BCS1388054;6;16
007651;13.12.2019;13:53:25;Normalcharge  ;19.10.2017;FEY;;LION;49;14500;7200;192;32;27;29;8400;3000;3558;3554;1;12991;22.04;36.24;35,8;BCS1388054;6;16
007651;13.12.2019;20:04:59;Stop          ;19.10.2017;FEY;;LION;49;14500;7200;224;32;92;100;8400;;4165;4157;1;12992;28.54;28.74;32,0;BCS1388054;6;16

Note: reader/backup_20220209/Batterieverzeichnis/009703.txt
009703;29.11.2020;04:36:38;Cycle         ;04.12.2018;FEY;;LION;49;14500;7200;192;2;95;98;8400;;4138;4137;1;13010;23.24;18.44;27,9;BCS1388054;4;13
009703;12.01.2021;04:16:03;Stop          ;04.12.2018;FEY;;LION;49;14500;7200;192;2;94;96;8400;;4119;4118;1;13015;23.34;21.94;23,0;BCS1388054;1;13
009703;12.01.2021;04:17:15;Charge to 90% ;04.12.2018;FEY;;LION;49;14500;7200;192;2;94;96;8400;;4118;4118;1;13015;23.34;22.44;23,5;BCS1388054;1;13
009703;12.01.2021;04:55:18;Stop          ;04.12.2018;FEY;;LION;49;14500;7200;192;2;88;90;8400;3000;4060;4059;1;13009;26.74;30.04;31,7;BCS1388054;1;13
009703;12.01.2021;05:21:33;Cycle         ;04.12.2018;FEY;;LION;49;14500;7200;192;2;88;90;8400;3000;4063;4063;1;13010;26.94;27.34;30,6;BCS1388054;1;13
009703;13.01.2021;08:18:34;Stop          ;04.12.2018;FEY;;LION;49;14500;7200;224;3;97;100;8400;;4155;4154;1;13010;26.94;27.24;30,7;BCS1388054;1;13
009703;21.02.2021;13:44:56;Normalcharge  ;04.12.2018;FEY;;LION;49;14500;7200;192;4;39;40;8400;3000;3600;3600;1;13014;23.04;23.04;27,7;BCS1388054;5;9
009703;21.02.2021;19:31:36;Stop          ;04.12.2018;FEY;;LION;49;14500;7200;224;4;97;100;8400;;4165;4166;1;13011;28.04;28.34;30,6;BCS1388054;5;9
009703;06.04.2021;08:39:21;Normalcharge  ;04.12.2018;FEY;;LION;49;14500;7200;192;4;94;96;8400;;4097;4097;1;13026;21.64;24.44;28,1;BCS1388054;7;11
009703;06.04.2021;08:40:08;Stop          ;04.12.2018;FEY;;LION;49;14500;7200;192;4;94;96;8400;;4097;4097;1;12948;21.74;24.64;28,5;BCS1388054;7;11
009703;08.04.2021;07:59:03;Normalcharge  ;04.12.2018;FEY;;LION;49;14500;7200;192;4;94;96;8400;;4098;4098;1;13023;25.34;24.84;26,4;BCS1388054;7;11
009703;08.04.2021;07:59:16;Stop          ;04.12.2018;FEY;;LION;49;14500;7200;192;4;94;96;8400;;4097;4097;1;13020;25.44;24.84;26,6;BCS1388054;7;11
009703;08.04.2021;10:36:43;Normalcharge  ;04.12.2018;FEY;;LION;49;14500;7200;192;4;94;96;8400;;4097;4097;1;13024;25.54;25.54;28,9;BCS1388054;7;11
009703;08.04.2021;10:37:15;Stop          ;04.12.2018;FEY;;LION;49;14500;7200;192;4;94;96;8400;;4097;4097;1;12961;25.54;25.54;29,2;BCS1388054;7;11
009703;18.04.2021;08:34:46;Normalcharge  ;04.12.2018;FEY;;LION;49;14500;7200;192;4;94;96;8400;;4095;4095;1;13023;26.34;26.24;28,2;BCS1388054;7;11
009703;18.04.2021;08:34:54;Stop          ;04.12.2018;FEY;;LION;49;14500;7200;192;4;94;96;8400;;4095;4095;1;13021;26.34;26.24;28,4;BCS1388054;7;11
009703;04.08.2021;07:24:29;Normalcharge  ;04.12.2018;FEY;;LION;49;14500;7200;192;4;94;96;8400;;4066;4066;1;13016;30.24;30.04;31,5;BCS1388054;7;11
009703;04.08.2021;07:25:08;Stop          ;04.12.2018;FEY;;LION;49;14500;7200;192;4;94;96;8400;;4066;4067;1;12974;30.24;30.24;31,6;BCS1388054;7;11
009703;14.10.2021;12:39:52;Normalcharge  ;04.12.2018;FEY;;LION;49;14500;7200;192;4;68;69;8400;3000;3839;3839;1;12997;25.54;26.74;27,9;BCS1388054;1;14
009703;14.10.2021;12:41:15;Stop          ;04.12.2018;FEY;;LION;49;14500;7200;128;4;68;69;8400;3000;3928;3880;1;12470;25.54;30.34;28,2;BCS1388054;1;14

Note: reader/backup_20220209/Batterieverzeichnis/009739.txt
009739;29.11.2020;04:42:29;Cycle         ;04.12.2018;FEY;;LION;49;14500;7200;16576;2;96;99;;;;;1;13006;23.04;15.64;27,5;BCS1388054;6;9
009739;12.01.2021;04:16:00;Charge to 90% ;04.12.2018;FEY;;LION;49;14500;7200;16576;2;95;97;;;4134;4133;1;12998;22.94;21.14;23,0;BCS1388054;1;5
009739;12.01.2021;04:16:03;Stop          ;04.12.2018;FEY;;LION;49;14500;7200;16576;2;95;97;;;4134;4133;1;12999;22.94;22.74;23,0;BCS1388054;1;5
009739;12.01.2021;04:17:15;Charge to 90% ;04.12.2018;FEY;;LION;49;14500;7200;16576;2;95;97;;;4134;4134;1;12998;22.84;23.24;23,5;BCS1388054;1;5
009739;12.01.2021;04:55:18;Stop          ;04.12.2018;FEY;;LION;49;14500;7200;192;2;88;90;8400;3000;4062;4062;1;12991;26.54;28.64;31,7;BCS1388054;1;5
009739;12.01.2021;05:21:33;Cycle         ;04.12.2018;FEY;;LION;49;14500;7200;192;2;88;90;8400;3000;4067;4067;1;12993;26.64;26.74;30,6;BCS1388054;1;5
009739;13.01.2021;08:18:34;Stop          ;04.12.2018;FEY;;LION;49;14500;7200;224;3;97;100;8400;;4156;4157;1;12992;26.34;26.64;30,7;BCS1388054;1;5
009739;22.02.2021;17:31:46;Normalcharge  ;04.12.2018;FEY;;LION;49;14500;7200;192;3;64;67;8400;3000;3822;3823;1;13003;25.24;27.94;31,6;BCS1388054;1;3
009739;22.02.2021;23:06:28;Stop          ;04.12.2018;FEY;;LION;49;14500;7200;224;3;97;100;8400;;4154;4154;1;13004;26.34;28.64;30,6;BCS1388054;1;3
009739;04.04.2021;11:50:22;Normalcharge  ;04.12.2018;FEY;;LION;49;14500;7200;192;4;53;55;8400;3000;3703;3703;1;13009;24.74;26.54;27,9;BCS1388054;4;1
009739;04.04.2021;11:51:36;Stop          ;04.12.2018;FEY;;LION;49;14500;7200;128;4;53;56;8400;3000;3791;3742;1;12746;24.74;29.14;28,6;BCS1388054;4;1
009739;05.04.2021;09:38:00;Ladung auf 60% ;04.12.2018;FEY;;LION;49;14500;7200;192;4;53;56;8400;3000;3705;3705;1;13008;24.94;25.74;26,3;BCS1388054;3;5
009739;05.04.2021;10:06:07;Stop           ;04.12.2018;FEY;;LION;49;14500;7200;192;4;57;60;8400;3000;3758;3758;1;13006;26.64;28.34;31,4;BCS1388054;3;5
009739;22.08.2021;11:08:13;Normalcharge  ;04.12.2018;FEY;;LION;49;14500;7200;192;4;53;56;8400;3000;3701;3701;1;12992;29.74;29.94;32,2;BCS1388054;6;7
009739;22.08.2021;11:08:46;Stop          ;04.12.2018;FEY;;LION;49;14500;7200;128;4;53;56;8400;3000;3730;3714;1;12804;29.74;31.14;32,5;BCS1388054;6;7
009739;25.08.2021;08:13:04;Normalcharge  ;04.12.2018;FEY;;LION;49;14500;7200;192;4;50;52;8400;3000;3675;3675;1;13022;30.24;30.94;32,4;BCS1388054;7;18
009739;25.08.2021;08:13:16;Stop          ;04.12.2018;FEY;;LION;49;14500;7200;192;4;50;52;8400;3000;3675;3675;1;13011;30.24;31.24;32,5;BCS1388054;7;18
009739;25.08.2021;08:14:41;Charge to 60% ;04.12.2018;FEY;;LION;49;14500;7200;192;4;50;52;8400;3000;3675;3675;1;13020;30.24;31.14;33,0;BCS1388054;7;18
009739;25.08.2021;08:37:46;Stop          ;04.12.2018;FEY;;LION;49;14500;7200;128;4;55;57;8400;3000;3813;3764;1;12736;31.94;40.24;36,1;BCS1388054;7;18
009739;25.08.2021;08:38:03;Charge to 60% ;04.12.2018;FEY;;LION;49;14500;7200;128;4;55;57;8400;3000;3733;3735;1;13020;31.94;39.24;36,1;BCS1388054;7;18
009739;25.08.2021;13:26:36;Stop          ;04.12.201

File: 001019.txt
Serialnumber ; Date ; Time ; Action ; Date of Manufacture ; Manufacturer ; Battery Name ; Device-Chemistry ; Specification-Info ; Design-Capacity [mAh] ; Design-Voltage [mV] ; Battery Status ; Cycle Count ; SOC [%] ; Relativ SOC[%] ; Desired Voltage [mV]; Desired Current [mA]; Cell Voltage 1 [mV] ; Cell Voltage 2 [mV] ; Max_Error [%] ; Busvoltage[mV] ; Battery Temperature [°C] ; Charger Temperature [°C] ; Batterysystem ; Case ; PLace
001019;10.12.2019;15:29:15;Charge to 30% ;28.11.2017;FEY;;LION;49;14500;7200;224;36;91;99;8400;;4120;4120;1;13027;21.94;23.74;27,1;BCS1388054;7;11
001019;10.12.2019;20:46:56;Stop          ;28.11.2017;FEY;;LION;49;14500;7200;192;36;28;30;8400;3000;3558;3558;1;13024;31.04;30.14;33,5;BCS1388054;7;11
001019;11.12.2019;08:49:12;Fastcharge    ;28.11.2017;FEY;;LION;49;14500;7200;192;36;28;30;8400;3000;3564;3564;1;13024;25.34;26.44;31,9;BCS1388054;7;11
001019;11.12.2019;13:38:42;Stop          ;28.11.2017;FEY;;LION;49;14500;7200;224;36;92;100;8400;;4157;4158;1;13023;28.24;28.24;32,7;BCS1388054;7;11
001019;11.12.2019;15:46:56;Charge to 10% ;28.11.2017;FEY;;LION;49;14500;7200;224;36;93;100;8400;;4152;4152;1;13024;26.04;26.54;31,2;BCS1388054;7;11
001019;11.12.2019;22:51:50;Stop          ;28.11.2017;FEY;;LION;49;14500;7200;192;38;10;10;8400;3000;3356;3357;1;13024;31.34;30.04;33,0;BCS1388054;7;11
001019;12.12.2019;08:45:27;Normalcharge  ;28.11.2017;FEY;;LION;49;14500;7200;192;38;9;9;8400;3000;3364;3365;1;13023;25.54;26.44;31,7;BCS1388054;7;11
001019;12.12.2019;16:41:08;Stop          ;28.11.2017;FEY;;LION;49;14500;7200;224;38;93;100;8400;;4157;4157;1;13023;27.64;27.54;31,6;BCS1388054;7;11
001019;13.12.2019;10:48:13;Charge to 10% ;28.11.2017;FEY;;LION;49;14500;7200;224;38;93;100;8400;;4148;4148;1;13023;25.54;26.64;32,0;BCS1388054;7;11
001019;13.12.2019;13:48:48;Stop          ;28.11.2017;FEY;;LION;49;14500;7200;192;38;55;60;8400;3000;3664;3716;1;13536;32.54;36.64;36,8;BCS1388054;7;11
001019;16.12.2019;07:43:27;Charge to 10% ;28.11.2017;FEY;;LION;49;14500;7200;192;38;55;60;8400;3000;3766;3767;1;13022;22.24;27.84;31,7;BCS1388054;6;17
001019;16.12.2019;14:43:10;Stop          ;28.11.2017;FEY;;LION;49;14500;7200;192;39;9;10;8400;3000;3365;3366;1;13021;29.24;31.64;31,7;BCS1388054;6;17
001019;16.12.2019;14:44:21;Charge to 90% ;28.11.2017;FEY;;LION;49;14500;7200;192;39;9;10;8400;3000;3365;3366;1;13022;29.24;31.44;31,9;BCS1388054;6;17
001019;16.12.2019;20:54:26;Stop          ;28.11.2017;FEY;;LION;49;14500;7200;192;39;82;90;8400;3000;4047;4047;1;13023;30.74;32.44;32,1;BCS1388054;6;17
001019;17.12.2019;08:37:58;Fastcharge    ;28.11.2017;FEY;;LION;49;14500;7200;192;39;83;90;8400;3000;4041;4041;1;13022;25.84;28.64;31,6;BCS1388054;6;17
001019;17.12.2019;13:38:40;Charge to 10% ;28.11.2017;FEY;;LION;49;14500;7200;224;39;92;100;8400;;4150;4150;1;13021;26.14;28.74;30,8;BCS1388054;6;17
001019;17.12.2019;20:41:41;Stop          ;28.11.2017;FEY;;LION;49;14500;7200;192;40;10;10;8400;3000;3360;3361;1;13020;32.64;34.34;32,6;BCS1388054;6;17
001019;18.12.2019;08:31:34;Fastcharge    ;28.11.2017;FEY;;LION;49;14500;7200;192;40;9;9;8400;3000;3368;3368;1;13022;25.94;28.84;31,6;BCS1388054;6;17
001019;18.12.2019;14:33:31;Stop          ;28.11.2017;FEY;;LION;49;14500;7200;224;40;91;100;8400;;4158;4157;1;13022;29.44;30.74;31,4;BCS1388054;6;17
001019;19.12.2019;08:24:06;Charge to 60% ;28.11.2017;FEY;;LION;49;14500;7200;224;40;92;100;8400;;4149;4149;1;13021;25.84;28.64;31,5;BCS1388054;6;17
001019;19.12.2019;11:34:24;Stop          ;28.11.2017;FEY;;LION;49;14500;7200;192;40;56;60;8400;3000;3772;3771;1;13021;32.64;34.14;33,5;BCS1388054;6;17
001019;19.12.2019;12:16:53;Cycle         ;28.11.2017;FEY;;LION;49;14500;7200;192;40;56;60;8400;3000;3777;3776;1;13021;29.84;30.94;32,7;BCS1388054;6;17
001019;20.12.2019;17:31:05;Stop          ;28.11.2017;FEY;;LION;49;14500;7200;224;41;91;100;8400;;4152;4152;1;13021;26.24;28.64;30,6;BCS1388054;6;17
001019;06.01.2020;06:34:58;Charge to 60% ;28.11.2017;FEY;;LION;49;14500;7200;192;41;90;98;8400;;4123;4123;1;13023;26.04;28.84;31,9;BCS1388054;6;17
001019;06.01.2020;09:30:42;Stop          ;28.11.2017;FEY;;LION;49;14500;7200;192;41;55;60;8400;3000;3768;3769;1;13023;32.04;34.44;33,7;BCS1388054;6;17
001019;06.01.2020;09:50:46;Fastcharge    ;28.11.2017;FEY;;LION;49;14500;7200;192;41;55;60;8400;3000;3774;3775;1;13022;30.74;31.54;32,7;BCS1388054;6;17
001019;06.01.2020;13:06:22;Stop          ;28.11.2017;FEY;;LION;49;14500;7200;224;41;92;100;8400;;4158;4159;1;13024;29.24;30.84;32,1;BCS1388054;6;17

File: 007582.txt
Serialnumber ; Date ; Time ; Action ; Date of Manufacture ; Manufacturer ; Battery Name ; Device-Chemistry ; Specification-Info ; Design-Capacity [mAh] ; Design-Voltage [mV] ; Battery Status ; Cycle Count ; SOC [%] ; Relativ SOC[%] ; Desired Voltage [mV]; Desired Current [mA]; Cell Voltage 1 [mV] ; Cell Voltage 2 [mV] ; Max_Error [%] ; Busvoltage[mV] ; Battery Temperature [°C] ; Charger Temperature [°C] ; Batterysystem ; Case ; PLace
007582;13.12.2019;13:53:33;Fastcharge    ;23.10.2017;FEY;;LION;49;14500;7200;192;17;93;98;8400;3000;4117;4118;1;13027;22.94;31.04;35,8;BCS1388054;7;6
007582;13.12.2019;13:55:00;Stop          ;23.10.2017;FEY;;LION;49;14500;7200;128;17;93;98;8400;3000;4160;4149;1;12758;23.34;31.64;36,1;BCS1388054;7;6
007582;13.12.2019;13:55:04;Charge to 10% ;23.10.2017;FEY;;LION;49;14500;7200;128;17;93;98;8400;3000;4163;4152;1;13026;23.34;31.64;36,1;BCS1388054;7;6
007582;13.12.2019;13:55:27;Stop          ;23.10.2017;FEY;;LION;49;14500;7200;128;17;93;98;8400;3000;4122;4127;1;13384;23.44;30.84;36,1;BCS1388054;7;6
007582;13.12.2019;13:55:29;Fastcharge    ;23.10.2017;FEY;;LION;49;14500;7200;192;17;93;98;8400;3000;4073;4095;1;13473;23.44;30.84;36,1;BCS1388054;7;6
007582;13.12.2019;13:55:29;Stop          ;23.10.2017;FEY;;LION;49;14500;7200;192;17;93;98;8400;3000;4073;4095;1;13473;23.44;30.84;36,1;BCS1388054;7;6
007582;13.12.2019;13:55:33;Normalcharge  ;23.10.2017;FEY;;LION;49;14500;7200;192;17;93;98;8400;3000;4073;4095;1;13326;23.44;30.94;36,1;BCS1388054;7;6
007582;13.12.2019;13:55:39;Fastcharge    ;23.10.2017;FEY;;LION;49;14500;7200;192;17;93;98;8400;3000;4119;4120;1;13013;23.54;30.94;36,1;BCS1388054;7;6
007582;13.12.2019;13:55:39;Stop          ;23.10.2017;FEY;;LION;49;14500;7200;192;17;93;98;8400;3000;4119;4120;1;13013;23.54;30.94;36,1;BCS1388054;7;6
007582;13.12.2019;13:56:34;Stop          ;23.10.2017;FEY;;LION;49;14500;7200;128;17;94;98;8400;3000;4156;4148;1;12744;23.74;31.34;36,2;BCS1388054;7;6
007582;13.12.2019;13:56:38;Charge to 95% ;23.10.2017;FEY;;LION;49;14500;7200;128;17;94;98;8400;3000;4156;4148;1;13028;23.74;31.34;36,2;BCS1388054;7;6
007582;13.12.2019;13:56:40;Stop          ;23.10.2017;FEY;;LION;49;14500;7200;128;17;94;98;8400;3000;4124;4129;1;13026;23.74;31.24;36,2;BCS1388054;7;6
007582;13.12.2019;13:56:48;Charge to 90% ;23.10.2017;FEY;;LION;49;14500;7200;128;17;94;98;8400;3000;4124;4129;1;13028;23.74;31.04;36,2;BCS1388054;7;6
007582;13.12.2019;15:42:54;Stop          ;23.10.2017;FEY;;LION;49;14500;7200;192;17;86;90;8400;3000;4045;4044;1;12969;29.44;29.04;34,5;BCS1388054;7;6
007582;13.12.2019;15:42:59;Fastcharge    ;23.10.2017;FEY;;LION;49;14500;7200;192;17;86;90;8400;3000;4045;4044;1;13028;29.44;29.04;34,4;BCS1388054;7;6
007582;13.12.2019;21:04:43;Stop          ;23.10.2017;FEY;;LION;49;14500;7200;224;17;95;100;8400;;4150;4150;1;13029;27.24;26.34;31,7;BCS1388054;7;6

File: 009511.txt
Serialnumber ; Date ; Time ; Action ; Date of Manufacture ; Manufacturer ; Battery Name ; Device-Chemistry ; Specification-Info ; Design-Capacity [mAh] ; Design-Voltage [mV] ; Battery Status ; Cycle Count ; SOC [%] ; Relativ SOC[%] ; Desired Voltage [mV]; Desired Current [mA]; Cell Voltage 1 [mV] ; Cell Voltage 2 [mV] ; Max_Error [%] ; Busvoltage[mV] ; Battery Temperature [°C] ; Charger Temperature [°C] ; Batterysystem ; Case ; PLace
009511;07.12.2020;04:14:36;Cycle         ;04.12.2018;FEY;;LION;49;14500;7200;192;2;98;98;8400;;4141;4143;1;12994;25.94;26.14;30,3;BCS1388054;6;6
009511;08.12.2020;16:20:13;Stop          ;04.12.2018;FEY;;LION;49;14500;7200;192;2;98;98;8400;;4139;4141;1;12994;27.84;27.54;31,9;BCS1388054;6;6
009511;12.01.2021;04:17:36;Charge to 90% ;04.12.2018;FEY;;LION;49;14500;7200;192;2;96;97;8400;;4125;4127;1;13010;23.34;23.64;23,6;BCS1388054;5;12
009511;12.01.2021;05:15:37;Stop          ;04.12.2018;FEY;;LION;49;14500;7200;192;2;90;90;8400;3000;4062;4063;1;13003;27.74;27.74;31,6;BCS1388054;5;12
009511;12.01.2021;05:21:53;Cycle         ;04.12.2018;FEY;;LION;49;14500;7200;192;2;90;90;8400;3000;4063;4063;1;13004;27.44;27.24;30,6;BCS1388054;5;12
009511;13.01.2021;08:31:10;Stop          ;04.12.2018;FEY;;LION;49;14500;7200;224;3;97;100;8400;;4155;4157;1;13003;27.14;27.24;31,1;BCS1388054;5;12
009511;21.02.2021;13:44:56;Normalcharge  ;04.12.2018;FEY;;LION;49;14500;7200;192;4;54;56;8400;3000;3706;3705;1;13005;23.24;22.54;27,7;BCS1388054;5;6
009511;21.02.2021;19:31:36;Stop          ;04.12.2018;FEY;;LION;49;14500;7200;224;4;98;100;8400;;4154;4156;1;13002;26.94;26.24;30,6;BCS1388054;5;6
009511;06.04.2021;08:39:03;Normalcharge  ;04.12.2018;FEY;;LION;49;14500;7200;224;4;96;99;8400;;4128;4129;1;13020;21.04;25.54;28,1;BCS1388054;4;16
009511;06.04.2021;08:39:53;Stop          ;04.12.2018;FEY;;LION;49;14500;7200;224;4;96;99;8400;;4129;4130;1;13018;21.04;25.74;28,4;BCS1388054;4;16
009511;08.04.2021;07:58:12;Normalcharge  ;04.12.2018;FEY;;LION;49;14500;7200;224;4;96;99;8400;;4128;4130;1;13021;25.54;19.44;26,3;BCS1388054;4;16
009511;08.04.2021;07:59:34;Stop          ;04.12.2018;FEY;;LION;49;14500;7200;224;4;96;99;8400;;4128;4130;1;13002;25.54;26.44;26,7;BCS1388054;4;16
009511;08.04.2021;10:36:07;Normalcharge  ;04.12.2018;FEY;;LION;49;14500;7200;224;4;96;99;8400;;4128;4129;1;13019;25.64;26.54;28,5;BCS1388054;4;16
009511;08.04.2021;10:37:03;Stop          ;04.12.2018;FEY;;LION;49;14500;7200;224;4;96;99;8400;;4128;4129;1;12996;25.64;26.94;29,0;BCS1388054;4;16
009511;18.04.2021;08:34:04;Normalcharge  ;04.12.2018;FEY;;LION;49;14500;7200;192;4;96;98;8400;;4124;4126;1;13019;26.44;27.44;27,9;BCS1388054;4;16
009511;18.04.2021;08:34:10;Stop          ;04.12.2018;FEY;;LION;49;14500;7200;192;4;96;98;8400;;4124;4125;1;13018;26.34;27.44;28,1;BCS1388054;4;16
009511;04.08.2021;07:24:46;Normalcharge  ;04.12.2018;FEY;;LION;49;14500;7200;192;4;93;96;8400;;4094;4094;1;13015;30.54;31.44;31,5;BCS1388054;4;16
009511;04.08.2021;07:25:30;Stop          ;04.12.2018;FEY;;LION;49;14500;7200;192;4;93;96;8400;;4094;4094;1;12992;30.54;31.74;31,7;BCS1388054;4;16
009511;22.08.2021;11:08:14;Normalcharge  ;04.12.2018;FEY;;LION;49;14500;7200;192;4;88;91;8400;3000;4039;4040;1;13009;24.14;30.34;32,2;BCS1388054;6;15
009511;22.08.2021;11:08:47;Stop          ;04.12.2018;FEY;;LION;49;14500;7200;128;4;88;91;8400;3000;4068;4057;1;12787;24.24;31.74;32,5;BCS1388054;6;15
009511;14.10.2021;12:40:04;Normalcharge  ;04.12.2018;FEY;;LION;49;14500;7200;192;4;85;88;8400;3000;4011;4011;1;13005;25.84;27.14;27,9;BCS1388054;3;13
009511;14.10.2021;12:41:33;Stop           ;04.12.2018;FEY;;LION;49;14500;7200;128;4;86;88;8400;3000;4096;4056;1;12617;25.94;30.64;28,4;BCS1388054;3;13
009511;28.12.2021;09:01:29;Normalcharge  ;04.12.2018;FEY;;LION;49;14500;7200;192;4;55;57;8400;3000;3715;3714;1;13008;23.74;23.84;25,4;BCS1388054;4;8
009511;28.12.2021;09:02:38;Stop          ;04.12.2018;FEY;;LION;49;14500;7200;128;4;55;57;8400;3000;3804;3757;1;12593;23.74;26.64;25,8;BCS1388054;4;8

File: 009531.txt
Serialnumber ; Date ; Time ; Action ; Date of Manufacture ; Manufacturer ; Battery Name ; Device-Chemistry ; Specification-Info ; Design-Capacity [mAh] ; Design-Voltage [mV] ; Battery Status ; Cycle Count ; SOC [%] ; Relativ SOC[%] ; Desired Voltage [mV]; Desired Current [mA]; Cell Voltage 1 [mV] ; Cell Voltage 2 [mV] ; Max_Error [%] ; Busvoltage[mV] ; Battery Temperature [°C] ; Charger Temperature [°C] ; Batterysystem ; Case ; PLace
009531;10.12.2019;15:28:48;Ladung auf 30% ;04.12.2018;FEY;;LION;49;14500;7200;224;49;93;99;8400;;4131;4130;1;13015;22.84;24.34;27,1;BCS1388054;3;15
009531;10.12.2019;20:47:21;Stop           ;04.12.2018;FEY;;LION;49;14500;7200;192;49;29;30;8400;3000;3560;3560;1;13015;34.54;35.24;33,5;BCS1388054;3;15
009531;11.12.2019;08:48:36;Fastcharge    ;04.12.2018;FEY;;LION;49;14500;7200;192;49;29;30;8400;3000;3569;3569;1;13014;26.64;28.14;31,9;BCS1388054;3;15
009531;11.12.2019;13:39:41;Stop           ;04.12.2018;FEY;;LION;49;14500;7200;224;49;95;100;8400;;4161;4161;1;13014;31.24;31.44;32,5;BCS1388054;3;15
009531;11.12.2019;15:46:24;Ladung auf 10% ;04.12.2018;FEY;;LION;49;14500;7200;224;49;96;100;8400;;4153;4152;1;13014;27.64;28.74;31,4;BCS1388054;3;15
009531;11.12.2019;22:48:44;Stop           ;04.12.2018;FEY;;LION;49;14500;7200;192;51;10;10;8400;3000;3357;3357;1;13014;35.44;35.24;33,6;BCS1388054;3;15
009531;12.12.2019;08:44:58;Normalcharge  ;04.12.2018;FEY;;LION;49;14500;7200;192;51;9;10;8400;3000;3367;3367;1;13014;26.74;28.34;31,9;BCS1388054;3;15
009531;12.12.2019;16:39:24;Stop           ;04.12.2018;FEY;;LION;49;14500;7200;224;51;96;100;8400;;4161;4161;1;13015;30.14;30.74;31,7;BCS1388054;3;15
009531;13.12.2019;10:47:57;Ladung auf 10% ;04.12.2018;FEY;;LION;49;14500;7200;224;51;95;99;8400;;4149;4148;1;13014;26.84;28.34;32,0;BCS1388054;3;15
009531;13.12.2019;15:42:18;Stop           ;04.12.2018;FEY;;LION;49;14500;7200;192;51;34;36;8400;3000;3500;3552;1;13561;34.14;40.84;34,6;BCS1388054;3;15
009531;13.12.2019;15:42:20;Cycle          ;04.12.2018;FEY;;LION;49;14500;7200;192;51;34;36;8400;3000;3500;3552;1;13012;34.14;40.84;34,6;BCS1388054;3;15
009531;14.12.2019;22:36:33;Stop           ;04.12.2018;FEY;;LION;49;14500;7200;224;53;94;99;8400;;4152;4151;1;13015;27.04;28.24;31,6;BCS1388054;3;15
009531;16.12.2019;07:43:10;Ladung auf 10% ;04.12.2018;FEY;;LION;49;14500;7200;224;53;94;100;8400;;4146;4146;1;13015;26.54;27.74;31,9;BCS1388054;3;15
009531;16.12.2019;14:34:27;Stop           ;04.12.2018;FEY;;LION;49;14500;7200;192;54;10;10;8400;3000;3363;3363;1;13014;34.14;35.04;32,5;BCS1388054;3;15
009531;16.12.2019;14:44:07;Ladung auf 90% ;04.12.2018;FEY;;LION;49;14500;7200;192;54;10;10;8400;3000;3366;3366;1;13014;33.24;32.34;31,7;BCS1388054;3;15
009531;16.12.2019;20:48:39;Stop           ;04.12.2018;FEY;;LION;49;14500;7200;192;54;84;90;8400;3000;4056;4058;1;13015;33.04;33.94;31,9;BCS1388054;3;15
009531;17.12.2019;08:37:45;Fastcharge    ;04.12.2018;FEY;;LION;49;14500;7200;192;54;84;90;8400;3000;4045;4046;1;13015;26.64;28.04;31,5;BCS1388054;3;15
009531;17.12.2019;10:30:44;Stop           ;04.12.2018;FEY;;LION;49;14500;7200;224;54;95;100;8400;;4162;4163;1;13016;28.64;30.64;31,4;BCS1388054;3;15
009531;17.12.2019;13:38:28;Ladung auf 10% ;04.12.2018;FEY;;LION;49;14500;7200;224;54;95;100;8400;;4149;4150;1;13015;27.04;28.34;30,8;BCS1388054;3;15
009531;17.12.2019;20:32:04;Stop           ;04.12.2018;FEY;;LION;49;14500;7200;192;55;10;10;8400;3000;3360;3361;1;13013;35.64;36.44;34,6;BCS1388054;3;15
009531;18.12.2019;08:31:22;Fastcharge    ;04.12.2018;FEY;;LION;49;14500;7200;192;55;10;10;8400;3000;3371;3373;1;13015;26.74;28.34;31,6;BCS1388054;3;15
009531;18.12.2019;14:26:33;Stop           ;04.12.2018;FEY;;LION;49;14500;7200;224;55;94;100;8400;;4162;4164;1;13015;31.34;31.54;32,5;BCS1388054;3;15
009531;19.12.2019;08:23:54;Ladung auf 60% ;04.12.2018;FEY;;LION;49;14500;7200;224;55;96;100;8400;;4149;4150;1;13013;26.64;28.14;31,6;BCS1388054;3;15
009531;19.12.2019;11:28:29;Stop           ;04.12.2018;FEY;;LION;49;14500;7200;192;55;57;60;8400;3000;3762;3763;1;13014;35.14;38.44;35,1;BCS1388054;3;15
009531;19.12.2019;12:16:41;Cycle          ;04.12.2018;FEY;;LION;49;14500;7200;192;55;57;60;8400;3000;3776;3778;1;13015;31.54;31.04;32,7;BCS1388054;3;15
009531;20.12.2019;17:23:28;Stop           ;04.12.2018;FEY;;LION;49;14500;7200;224;57;94;100;8400;;4152;4154;1;13014;27.24;28.44;31,9;BCS1388054;3;15
009531;06.01.2020;06:34:46;Ladung auf 60% ;04.12.2018;FEY;;LION;49;14500;7200;224;57;93;99;8400;;4122;4124;1;13015;26.84;28.24;31,9;BCS1388054;3;15
009531;06.01.2020;09:29:20;Stop           ;04.12.2018;FEY;;LION;49;14500;7200;192;57;57;60;8400;3000;3764;3766;1;13015;34.24;36.84;34,2;BCS1388054;3;15
009531;06.01.2020;09:50:34;Fastcharge    ;04.12.2018;FEY;;LION;49;14500;7200;192;57;57;60;8400;3000;3775;3778;1;13015;32.74;31.84;32,7;BCS1388054;3;15
009531;06.01.2020;13:06:26;Stop           ;04.12.2018;FEY;;LION;49;14500;7200;224;57;94;100;8400;;4160;4163;1;13016;30.84;31.24;32,1;BCS1388054;3;15