Folder: Battery_sort_V2/reader/backup_20210330/Batterieverzeichnis (part 2)

File: 009668.txt
Serialnumber ; Date ; Time ; Action ; Date of Manufacture ; Manufacturer ; Battery Name ; Device-Chemistry ; Specification-Info ; Design-Capacity [mAh] ; Design-Voltage [mV] ; Battery Status ; Cycle Count ; SOC [%] ; Relativ SOC[%] ; Desired Voltage [mV]; Desired Current [mA]; Cell Voltage 1 [mV] ; Cell Voltage 2 [mV] ; Max_Error [%] ; Busvoltage[mV] ; Battery Temperature [°C] ; Charger Temperature [°C] ; Batterysystem ; Case ; PLace
009668;10.12.2019;15:28:40;Charge to 30% ;03.12.2018;FEY;;LION;49;14500;7200;224;52;92;99;8400;;4131;4130;1;13010;23.34;25.04;27,1;BCS1388054;2;12
009668;10.12.2019;20:48:37;Stop          ;03.12.2018;FEY;;LION;49;14500;7200;192;53;29;30;8400;3000;3563;3563;1;13008;32.64;32.34;33,2;BCS1388054;2;12
009668;11.12.2019;08:48:24;Fastcharge    ;03.12.2018;FEY;;LION;49;14500;7200;192;53;29;30;8400;3000;3570;3570;1;13007;26.44;27.74;31,9;BCS1388054;2;12
009668;11.12.2019;13:39:47;Stop          ;03.12.2018;FEY;;LION;49;14500;7200;224;53;95;100;8400;;4160;4161;1;13007;29.14;29.64;32,5;BCS1388054;2;12
009668;11.12.2019;15:46:18;Charge to 10% ;03.12.2018;FEY;;LION;49;14500;7200;224;53;96;99;8400;;4152;4152;1;13008;27.04;28.14;31,4;BCS1388054;2;12
009668;11.12.2019;22:49:04;Stop          ;03.12.2018;FEY;;LION;49;14500;7200;192;54;10;10;8400;3000;3352;3352;1;13008;33.24;32.74;33,6;BCS1388054;2;12
009668;12.12.2019;08:44:52;Normalcharge  ;03.12.2018;FEY;;LION;49;14500;7200;192;54;9;10;8400;3000;3363;3363;1;13008;26.64;27.84;31,9;BCS1388054;2;12
009668;12.12.2019;16:40:06;Stop          ;03.12.2018;FEY;;LION;49;14500;7200;224;54;96;100;8400;;4161;4161;1;13008;28.64;29.24;31,7;BCS1388054;2;12
009668;13.12.2019;10:47:50;Charge to 10% ;03.12.2018;FEY;;LION;49;14500;7200;224;54;96;100;8400;;4147;4147;1;13008;26.64;27.94;32,0;BCS1388054;2;12
009668;13.12.2019;15:42:08;Cycle         ;03.12.2018;FEY;;LION;49;14500;7200;192;55;34;36;8400;3000;3502;3552;1;13580;32.34;34.74;34,6;BCS1388054;2;12
009668;13.12.2019;15:42:08;Stop          ;03.12.2018;FEY;;LION;49;14500;7200;192;55;34;36;8400;3000;3502;3552;1;13580;32.34;34.74;34,6;BCS1388054;2;12
009668;14.12.2019;22:48:51;Stop          ;03.12.2018;FEY;;LION;49;14500;7200;224;56;93;100;8400;;4151;4150;1;13008;26.64;27.94;32,0;BCS1388054;2;12
009668;16.12.2019;07:43:06;Charge to 10% ;03.12.2018;FEY;;LION;49;14500;7200;224;56;94;100;8400;;4145;4144;1;13009;26.44;27.34;31,9;BCS1388054;2;12
009668;16.12.2019;14:37:54;Stop          ;03.12.2018;FEY;;LION;49;14500;7200;192;57;10;10;8400;3000;3366;3366;1;13008;31.74;31.34;32,4;BCS1388054;2;12
009668;16.12.2019;14:44:03;Charge to 90% ;03.12.2018;FEY;;LION;49;14500;7200;192;57;10;10;8400;3000;3368;3368;1;13009;31.14;30.64;31,9;BCS1388054;2;12
009668;16.12.2019;20:51:09;Stop          ;03.12.2018;FEY;;LION;49;14500;7200;192;57;84;90;8400;3000;4059;4060;1;13010;30.64;30.34;31,6;BCS1388054;2;12
009668;17.12.2019;08:37:41;Fastcharge    ;03.12.2018;FEY;;LION;49;14500;7200;192;57;85;90;8400;3000;4049;4049;1;13008;26.44;27.64;31,6;BCS1388054;2;12
009668;17.12.2019;10:30:36;Stop          ;03.12.2018;FEY;;LION;49;14500;7200;224;57;95;100;8400;;4159;4158;1;13009;27.74;28.64;31,5;BCS1388054;2;12
009668;17.12.2019;13:38:22;Charge to 10% ;03.12.2018;FEY;;LION;49;14500;7200;224;57;95;100;8400;;4148;4148;1;13009;26.74;27.74;30,8;BCS1388054;2;12
009668;17.12.2019;20:36:00;Stop          ;03.12.2018;FEY;;LION;49;14500;7200;192;58;10;10;8400;3000;3366;3366;1;13009;32.94;32.54;33,6;BCS1388054;2;12
009668;18.12.2019;08:31:17;Fastcharge    ;03.12.2018;FEY;;LION;49;14500;7200;192;58;10;11;8400;3000;3375;3376;1;13009;26.64;27.74;31,6;BCS1388054;2;12
009668;18.12.2019;14:28:27;Stop          ;03.12.2018;FEY;;LION;49;14500;7200;224;58;95;100;8400;;4160;4159;1;13009;29.14;29.64;32,0;BCS1388054;2;12
009668;19.12.2019;08:23:50;Charge to 60% ;03.12.2018;FEY;;LION;49;14500;7200;224;58;96;100;8400;;4147;4146;1;13008;26.44;27.74;31,5;BCS1388054;2;12
009668;19.12.2019;11:32:11;Stop          ;03.12.2018;FEY;;LION;49;14500;7200;192;59;58;60;8400;3000;3773;3773;1;13010;33.34;32.84;34,0;BCS1388054;2;12
009668;19.12.2019;12:16:37;Cycle         ;03.12.2018;FEY;;LION;49;14500;7200;192;59;58;60;8400;3000;3781;3781;1;13009;29.64;29.84;32,7;BCS1388054;2;12
009668;20.12.2019;17:35:47;Stop          ;03.12.2018;FEY;;LION;49;14500;7200;224;60;94;100;8400;;4150;4151;1;13009;26.54;27.64;31,1;BCS1388054;2;12
009668;06.01.2020;06:34:42;Charge to 60% ;03.12.2018;FEY;;LION;49;14500;7200;224;60;93;99;8400;;4122;4122;1;13010;26.54;27.64;31,9;BCS1388054;2;12
009668;06.01.2020;09:32:11;Stop          ;03.12.2018;FEY;;LION;49;14500;7200;192;60;57;60;8400;3000;3770;3772;1;13009;32.64;32.14;33,2;BCS1388054;2;12
009668;06.01.2020;09:50:30;Fastcharge    ;03.12.2018;FEY;;LION;49;14500;7200;192;60;57;60;8400;3000;3779;3781;1;13010;30.74;30.54;32,7;BCS1388054;2;12
009668;06.01.2020;13:08:34;Stop          ;03.12.2018;FEY;;LION;49;14500;7200;224;60;95;100;8400;;4161;4161;1;13009;28.74;29.14;31,6;BCS1388054;2;12

File: 009747.txt
Serialnumber ; Date ; Time ; Action ; Date of Manufacture ; Manufacturer ; Battery Name ; Device-Chemistry ; Specification-Info ; Design-Capacity [mAh] ; Design-Voltage [mV] ; Battery Status ; Cycle Count ; SOC [%] ; Relativ SOC[%] ; Desired Voltage [mV]; Desired Current [mA]; Cell Voltage 1 [mV] ; Cell Voltage 2 [mV] ; Max_Error [%] ; Busvoltage[mV] ; Battery Temperature [°C] ; Charger Temperature [°C] ; Batterysystem ; Case ; PLace
009747;07.12.2020;04:14:36;Cycle         ;04.12.2018;FEY;;LION;49;14500;7200;192;3;96;98;8400;;4148;4148;1;12991;25.84;27.74;30,3;BCS1388054;6;10
009747;08.12.2020;16:20:13;Stop          ;04.12.2018;FEY;;LION;49;14500;7200;192;3;96;98;8400;;4146;4145;1;12991;27.94;29.24;31,9;BCS1388054;6;10
009747;12.01.2021;04:17:40;Charge to 90% ;04.12.2018;FEY;;LION;49;14500;7200;192;3;95;97;8400;;4132;4131;1;13007;23.24;22.84;23,6;BCS1388054;6;12
009747;12.01.2021;05:00:55;Stop          ;04.12.2018;FEY;;LION;49;14500;7200;192;3;88;90;8400;3000;4064;4064;1;13001;27.84;27.04;31,2;BCS1388054;6;12
009747;12.01.2021;05:21:57;Cycle         ;04.12.2018;FEY;;LION;49;14500;7200;192;3;88;90;8400;3000;4067;4067;1;13002;27.34;26.14;30,4;BCS1388054;6;12
009747;13.01.2021;08:31:18;Stop          ;04.12.2018;FEY;;LION;49;14500;7200;224;4;97;100;8400;;4155;4153;1;13000;26.84;26.24;31,1;BCS1388054;6;12
009747;03.03.2021;08:17:17;Normalcharge  ;04.12.2018;FEY;;LION;49;14500;7200;192;4;91;95;8400;3000;4090;4090;1;13010;23.34;23.04;23,5;BCS1388054;2;14
009747;04.03.2021;07:53:46;Stop          ;04.12.2018;FEY;;LION;49;14500;7200;224;4;97;100;8400;;4146;4145;1;13001;26.54;27.84;31,6;BCS1388054;2;14

File: 009831.txt
Serialnumber ; Date ; Time ; Action ; Date of Manufacture ; Manufacturer ; Battery Name ; Device-Chemistry ; Specification-Info ; Design-Capacity [mAh] ; Design-Voltage [mV] ; Battery Status ; Cycle Count ; SOC [%] ; Relativ SOC[%] ; Desired Voltage [mV]; Desired Current [mA]; Cell Voltage 1 [mV] ; Cell Voltage 2 [mV] ; Max_Error [%] ; Busvoltage[mV] ; Battery Temperature [°C] ; Charger Temperature [°C] ; Batterysystem ; Case ; PLace
009831;30.11.2020;09:42:55;Stop          ;03.12.2018;FEY;;LION;49;14500;7200;16576;3;98;98;;;4152;4152;1;13030;27.64;28.84;31,7;BCS1388054;7;5
009831;07.12.2020;04:14:28;Cycle         ;03.12.2018;FEY;;LION;49;14500;7200;16576;3;97;98;;;4147;4147;1;13007;25.84;27.44;30,3;BCS1388054;4;13
009831;08.12.2020;16:19:56;Stop          ;03.12.2018;FEY;;LION;49;14500;7200;16576;3;97;98;;;4144;4144;1;13006;27.84;29.04;31,9;BCS1388054;4;13
009831;12.01.2021;04:17:33;Charge to 90% ;03.12.2018;FEY;;LION;49;14500;7200;16576;3;96;97;;;4129;4129;1;12996;23.14;24.34;23,6;BCS1388054;4;2
009831;12.01.2021;04:57:16;Stop          ;03.12.2018;FEY;;LION;49;14500;7200;192;3;90;90;8400;3000;4061;4061;1;12992;26.94;30.74;31,6;BCS1388054;4;2
009831;12.01.2021;05:21:49;Cycle         ;03.12.2018;FEY;;LION;49;14500;7200;192;3;90;90;8400;3000;4065;4065;1;12992;27.14;29.34;30,4;BCS1388054;4;2
009831;13.01.2021;08:19:19;Stop          ;03.12.2018;FEY;;LION;49;14500;7200;224;4;98;100;8400;;4156;4157;1;12992;27.24;29.24;30,7;BCS1388054;4;2
009831;21.02.2021;13:43:32;Normalcharge  ;03.12.2018;FEY;;LION;49;14500;7200;192;5;73;75;8400;3000;3896;3896;1;13003;23.34;25.34;27,5;BCS1388054;2;8
009831;21.02.2021;19:27:00;Stop          ;03.12.2018;FEY;;LION;49;14500;7200;224;5;97;100;8400;;4153;4153;1;13003;27.34;28.54;31,1;BCS1388054;2;8

File: 009846.txt
Serialnumber ; Date ; Time ; Action ; Date of Manufacture ; Manufacturer ; Battery Name ; Device-Chemistry ; Specification-Info ; Design-Capacity [mAh] ; Design-Voltage [mV] ; Battery Status ; Cycle Count ; SOC [%] ; Relativ SOC[%] ; Desired Voltage [mV]; Desired Current [mA]; Cell Voltage 1 [mV] ; Cell Voltage 2 [mV] ; Max_Error [%] ; Busvoltage[mV] ; Battery Temperature [°C] ; Charger Temperature [°C] ; Batterysystem ; Case ; PLace
009846;10.12.2019;15:29:01;Charge to 30% ;04.12.2018;FEY;;LION;49;14500;7200;224;52;94;100;8400;;4131;4131;1;13002;22.74;25.24;27,1;BCS1388054;5;7
009846;10.12.2019;20:48:54;Stop          ;04.12.2018;FEY;;LION;49;14500;7200;192;53;29;30;8400;3000;3560;3559;1;13000;34.24;35.14;33,1;BCS1388054;5;7
009846;11.12.2019;08:48:53;Fastcharge    ;04.12.2018;FEY;;LION;49;14500;7200;192;53;29;30;8400;3000;3569;3569;1;13000;26.84;29.14;31,9;BCS1388054;5;7
009846;11.12.2019;13:40:11;Stop          ;04.12.2018;FEY;;LION;49;14500;7200;224;53;95;100;8400;;4163;4162;1;13001;30.84;32.04;32,4;BCS1388054;5;7
009846;11.12.2019;15:46:40;Charge to 10% ;04.12.2018;FEY;;LION;49;14500;7200;224;53;96;100;8400;;4153;4153;1;13000;27.64;29.54;31,4;BCS1388054;5;7
009846;11.12.2019;22:49:07;Stop          ;04.12.2018;FEY;;LION;49;14500;7200;192;54;10;10;8400;3000;3357;3356;1;13000;35.14;35.84;33,5;BCS1388054;5;7
009846;12.12.2019;08:45:10;Normalcharge  ;04.12.2018;FEY;;LION;49;14500;7200;192;54;9;10;8400;3000;3366;3366;1;13000;27.04;29.34;31,7;BCS1388054;5;7
009846;12.12.2019;16:41:20;Stop          ;04.12.2018;FEY;;LION;49;14500;7200;224;54;96;100;8400;;4160;4160;1;13000;29.84;31.14;31,6;BCS1388054;5;7
009846;13.12.2019;10:48:05;Charge to 10% ;04.12.2018;FEY;;LION;49;14500;7200;224;54;96;100;8400;;4148;4148;1;12999;27.04;29.44;32,0;BCS1388054;5;7
009846;13.12.2019;15:40:55;Stop          ;04.12.2018;FEY;;LION;49;14500;7200;192;54;35;37;8400;3000;3505;3554;1;13502;33.24;40.14;34,6;BCS1388054;5;7
009846;13.12.2019;15:41:42;Cycle         ;04.12.2018;FEY;;LION;49;14500;7200;192;54;35;37;8400;3000;3585;3585;1;13001;33.24;37.84;34,5;BCS1388054;5;7
009846;14.12.2019;22:39:35;Stop          ;04.12.2018;FEY;;LION;49;14500;7200;224;56;93;99;8400;;4152;4152;1;13000;27.14;29.24;31,7;BCS1388054;5;7
009846;16.12.2019;07:43:20;Charge to 10% ;04.12.2018;FEY;;LION;49;14500;7200;224;56;94;100;8400;;4146;4146;1;13001;26.84;28.64;31,9;BCS1388054;5;7
009846;16.12.2019;14:34:29;Stop          ;04.12.2018;FEY;;LION;49;14500;7200;192;57;10;10;8400;3000;3363;3363;1;13001;33.04;34.64;32,5;BCS1388054;5;7
009846;16.12.2019;14:44:17;Charge to 90% ;04.12.2018;FEY;;LION;49;14500;7200;192;57;10;10;8400;3000;3367;3367;1;13000;32.34;32.14;31,9;BCS1388054;5;7
009846;16.12.2019;20:48:55;Stop          ;04.12.2018;FEY;;LION;49;14500;7200;192;57;85;90;8400;3000;4058;4059;1;13002;32.84;34.04;31,9;BCS1388054;5;7
009846;17.12.2019;08:37:53;Fastcharge    ;04.12.2018;FEY;;LION;49;14500;7200;192;57;85;90;8400;3000;4046;4047;1;13001;26.94;29.24;31,6;BCS1388054;5;7
009846;17.12.2019;10:33:46;Stop          ;04.12.2018;FEY;;LION;49;14500;7200;224;57;95;100;8400;;4161;4160;1;13001;28.74;30.44;31,1;BCS1388054;5;7
009846;17.12.2019;10:33:46;Stop          ;04.12.2018;FEY;;LION;49;14500;7200;224;57;95;100;8400;;4161;4160;1;13001;28.74;30.44;31,1;BCS1388054;5;7
009846;17.12.2019;13:38:36;Charge to 10% ;04.12.2018;FEY;;LION;49;14500;7200;224;57;95;100;8400;;4150;4150;1;13001;27.24;29.24;30,8;BCS1388054;5;7
009846;17.12.2019;20:33:18;Stop          ;04.12.2018;FEY;;LION;49;14500;7200;192;58;10;10;8400;3000;3363;3363;1;13000;35.14;35.94;34,5;BCS1388054;5;7
009846;18.12.2019;08:31:30;Fastcharge    ;04.12.2018;FEY;;LION;49;14500;7200;192;58;10;10;8400;3000;3374;3374;1;13001;27.04;29.34;31,6;BCS1388054;5;7
009846;18.12.2019;14:29:27;Stop          ;04.12.2018;FEY;;LION;49;14500;7200;224;58;95;100;8400;;4161;4161;1;13001;30.84;31.64;31,7;BCS1388054;5;7
009846;19.12.2019;08:24:02;Charge to 60% ;04.12.2018;FEY;;LION;49;14500;7200;224;58;96;100;8400;;4149;4149;1;13000;26.94;29.24;31,5;BCS1388054;5;7
009846;19.12.2019;11:31:09;Stop          ;04.12.2018;FEY;;LION;49;14500;7200;192;59;58;60;8400;3000;3767;3764;1;13000;34.74;36.14;34,4;BCS1388054;5;7
009846;19.12.2019;12:16:49;Cycle         ;04.12.2018;FEY;;LION;49;14500;7200;192;59;58;60;8400;3000;3777;3774;1;13001;31.14;31.54;32,7;BCS1388054;5;7
009846;20.12.2019;17:27:50;Stop          ;04.12.2018;FEY;;LION;49;14500;7200;224;60;94;100;8400;;4152;4152;1;13001;27.34;29.24;31,0;BCS1388054;5;7
009846;06.01.2020;06:34:55;Charge to 60% ;04.12.2018;FEY;;LION;49;14500;7200;192;60;93;98;8400;;4123;4123;1;13001;27.24;29.44;31,9;BCS1388054;5;7
009846;06.01.2020;09:30:26;Stop          ;04.12.2018;FEY;;LION;49;14500;7200;192;60;57;60;8400;3000;3771;3769;1;13002;33.94;35.74;33,9;BCS1388054;5;7
009846;06.01.2020;09:50:42;Fastcharge    ;04.12.2018;FEY;;LION;49;14500;7200;192;60;57;60;8400;3000;3780;3778;1;13002;32.34;32.14;32,7;BCS1388054;5;7
009846;06.01.2020;13:09:56;Stop          ;04.12.2018;FEY;;LION;49;14500;7200;224;60;95;100;8400;;4160;4160;1;13001;30.34;31.14;31,4;BCS1388054;5;7