Folder: Battery_sort_V2/reader/backup_20210330/Batterieverzeichnis_new (part 3)

File: 009648.txt
Serialnumber ; Date ; Time ; Action ; Date of Manufacture ; Manufacturer ; Battery Name ; Device-Chemistry ; Specification-Info ; Design-Capacity [mAh] ; Design-Voltage [mV] ; Battery Status ; Cycle Count ; SOC [%] ; Relativ SOC[%] ; Desired Voltage [mV]; Desired Current [mA]; Cell Voltage 1 [mV] ; Cell Voltage 2 [mV] ; Max_Error [%] ; Busvoltage[mV] ; Battery Temperature [°C] ; Charger Temperature [°C] ; Batterysystem ; Case ; PLace
009648;10.12.2019;15:28:40;Charge to 30% ;04.12.2018;FEY;;LION;49;14500;7200;224;52;93;99;8400;;4131;4132;1;13025;23.24;24.14;27,1;BCS1388054;2;6
009648;10.12.2019;20:48:37;Stop          ;04.12.2018;FEY;;LION;49;14500;7200;192;53;29;30;8400;3000;3561;3560;1;13021;33.04;31.04;33,2;BCS1388054;2;6
009648;11.12.2019;08:48:24;Fastcharge    ;04.12.2018;FEY;;LION;49;14500;7200;192;53;29;30;8400;3000;3569;3568;1;13023;26.44;26.94;31,9;BCS1388054;2;6
009648;11.12.2019;13:39:47;Stop          ;04.12.2018;FEY;;LION;49;14500;7200;224;53;95;100;8400;;4160;4161;1;13023;29.34;28.34;32,5;BCS1388054;2;6
009648;11.12.2019;15:46:18;Charge to 10% ;04.12.2018;FEY;;LION;49;14500;7200;224;53;96;99;8400;;4152;4152;1;13023;27.04;27.04;31,4;BCS1388054;2;6
009648;11.12.2019;22:49:04;Stop          ;04.12.2018;FEY;;LION;49;14500;7200;192;54;10;10;8400;3000;3360;3358;1;13021;33.54;31.44;33,6;BCS1388054;2;6
009648;12.12.2019;08:44:52;Normalcharge  ;04.12.2018;FEY;;LION;49;14500;7200;192;54;9;10;8400;3000;3369;3367;1;13023;26.64;26.94;31,9;BCS1388054;2;6
009648;12.12.2019;16:40:06;Stop          ;04.12.2018;FEY;;LION;49;14500;7200;224;54;96;100;8400;;4159;4157;1;13022;28.74;28.04;31,7;BCS1388054;2;6
009648;13.12.2019;10:47:50;Charge to 10% ;04.12.2018;FEY;;LION;49;14500;7200;224;54;96;100;8400;;4147;4146;1;13022;26.64;27.14;32,0;BCS1388054;2;6
009648;13.12.2019;15:42:08;Cycle         ;04.12.2018;FEY;;LION;49;14500;7200;192;54;35;36;8400;3000;3500;3549;1;13584;32.64;33.84;34,6;BCS1388054;2;6
009648;13.12.2019;15:42:08;Stop          ;04.12.2018;FEY;;LION;49;14500;7200;192;54;35;36;8400;3000;3500;3549;1;13584;32.64;33.84;34,6;BCS1388054;2;6
009648;14.12.2019;22:48:51;Stop          ;04.12.2018;FEY;;LION;49;14500;7200;224;56;93;99;8400;;4150;4150;1;13023;26.64;26.94;32,0;BCS1388054;2;6
009648;16.12.2019;07:43:06;Charge to 10% ;04.12.2018;FEY;;LION;49;14500;7200;224;56;94;100;8400;;4144;4144;1;13024;26.34;26.64;31,9;BCS1388054;2;6
009648;16.12.2019;14:37:54;Stop          ;04.12.2018;FEY;;LION;49;14500;7200;192;57;10;10;8400;3000;3366;3364;1;13023;32.24;29.84;32,4;BCS1388054;2;6
009648;16.12.2019;14:44:03;Charge to 90% ;04.12.2018;FEY;;LION;49;14500;7200;192;57;10;10;8400;3000;3368;3366;1;13024;31.74;29.24;31,9;BCS1388054;2;6
009648;16.12.2019;20:51:09;Stop          ;04.12.2018;FEY;;LION;49;14500;7200;192;57;84;90;8400;3000;4055;4055;1;13023;30.94;28.94;31,6;BCS1388054;2;6
009648;17.12.2019;08:37:40;Fastcharge    ;04.12.2018;FEY;;LION;49;14500;7200;192;57;85;90;8400;3000;4046;4045;1;13024;26.44;26.74;31,6;BCS1388054;2;6
009648;17.12.2019;10:30:36;Stop          ;04.12.2018;FEY;;LION;49;14500;7200;224;57;95;100;8400;;4160;4160;1;13023;27.74;27.44;31,5;BCS1388054;2;6
009648;17.12.2019;13:38:22;Charge to 10% ;04.12.2018;FEY;;LION;49;14500;7200;224;57;95;100;8400;;4148;4148;1;13022;26.74;26.84;30,8;BCS1388054;2;6
009648;17.12.2019;20:36:00;Stop          ;04.12.2018;FEY;;LION;49;14500;7200;192;58;10;10;8400;3000;3365;3363;1;13022;33.54;31.14;33,6;BCS1388054;2;6
009648;18.12.2019;08:31:17;Fastcharge    ;04.12.2018;FEY;;LION;49;14500;7200;192;58;10;10;8400;3000;3374;3372;1;13024;26.54;26.74;31,6;BCS1388054;2;6
009648;18.12.2019;14:28:27;Stop          ;04.12.2018;FEY;;LION;49;14500;7200;224;58;95;100;8400;;4163;4162;1;13023;29.34;28.34;32,0;BCS1388054;2;6
009648;19.12.2019;08:23:50;Charge to 60% ;04.12.2018;FEY;;LION;49;14500;7200;224;58;96;100;8400;;4148;4147;1;13023;26.44;26.74;31,5;BCS1388054;2;6
009648;19.12.2019;11:32:11;Stop          ;04.12.2018;FEY;;LION;49;14500;7200;192;59;58;60;8400;3000;3770;3767;1;13022;33.64;31.54;34,0;BCS1388054;2;6
009648;19.12.2019;12:16:37;Cycle         ;04.12.2018;FEY;;LION;49;14500;7200;192;59;58;60;8400;3000;3778;3775;1;13023;29.94;28.64;32,7;BCS1388054;2;6
009648;20.12.2019;17:35:47;Stop          ;04.12.2018;FEY;;LION;49;14500;7200;224;60;94;100;8400;;4150;4149;1;13023;26.64;26.74;31,1;BCS1388054;2;6
009648;06.01.2020;06:34:42;Charge to 60% ;04.12.2018;FEY;;LION;49;14500;7200;224;60;93;99;8400;;4121;4120;1;13024;26.44;26.74;31,9;BCS1388054;2;6
009648;06.01.2020;09:32:11;Stop          ;04.12.2018;FEY;;LION;49;14500;7200;192;60;57;60;8400;3000;3774;3771;1;13023;32.84;30.94;33,2;BCS1388054;2;6
009648;06.01.2020;09:50:30;Fastcharge    ;04.12.2018;FEY;;LION;49;14500;7200;192;60;57;60;8400;3000;3781;3777;1;13024;31.24;29.34;32,7;BCS1388054;2;6
009648;06.01.2020;13:08:34;Stop          ;04.12.2018;FEY;;LION;49;14500;7200;224;60;94;100;8400;;4160;4160;1;13024;28.84;27.74;31,6;BCS1388054;2;6

File: 009664.txt
Serialnumber ; Date ; Time ; Action ; Date of Manufacture ; Manufacturer ; Battery Name ; Device-Chemistry ; Specification-Info ; Design-Capacity [mAh] ; Design-Voltage [mV] ; Battery Status ; Cycle Count ; SOC [%] ; Relativ SOC[%] ; Desired Voltage [mV]; Desired Current [mA]; Cell Voltage 1 [mV] ; Cell Voltage 2 [mV] ; Max_Error [%] ; Busvoltage[mV] ; Battery Temperature [°C] ; Charger Temperature [°C] ; Batterysystem ; Case ; PLace
009664;10.12.2019;15:29:01;Charge to 30% ;03.12.2018;FEY;;LION;49;14500;7200;224;48;93;100;8400;;4130;4129;1;13015;22.34;24.34;27,1;BCS1388054;5;11
009664;10.12.2019;20:48:54;Stop          ;03.12.2018;FEY;;LION;49;14500;7200;192;49;29;30;8400;3000;3561;3561;1;13011;32.74;32.04;33,1;BCS1388054;5;11
009664;11.12.2019;08:48:53;Fastcharge    ;03.12.2018;FEY;;LION;49;14500;7200;192;49;29;30;8400;3000;3569;3568;1;13012;26.24;27.64;31,9;BCS1388054;5;11
009664;11.12.2019;13:40:11;Stop          ;03.12.2018;FEY;;LION;49;14500;7200;224;49;94;100;8400;;4161;4162;1;13012;29.54;29.64;32,4;BCS1388054;5;11
009664;11.12.2019;15:46:40;Charge to 10% ;03.12.2018;FEY;;LION;49;14500;7200;224;49;96;100;8400;;4153;4153;1;13012;26.94;27.74;31,4;BCS1388054;5;11
009664;11.12.2019;22:49:07;Stop          ;03.12.2018;FEY;;LION;49;14500;7200;192;50;10;10;8400;3000;3352;3352;1;13010;33.54;32.74;33,5;BCS1388054;5;11
009664;12.12.2019;08:45:10;Normalcharge  ;03.12.2018;FEY;;LION;49;14500;7200;192;50;9;10;8400;3000;3363;3363;1;13012;26.34;27.64;31,7;BCS1388054;5;11
009664;12.12.2019;16:41:20;Stop          ;03.12.2018;FEY;;LION;49;14500;7200;224;50;96;100;8400;;4161;4161;1;13012;28.74;29.04;31,6;BCS1388054;5;11
009664;13.12.2019;10:48:05;Charge to 10% ;03.12.2018;FEY;;LION;49;14500;7200;224;50;95;100;8400;;4149;4148;1;13011;26.34;27.84;32,0;BCS1388054;5;11
009664;13.12.2019;15:40:55;Stop          ;03.12.2018;FEY;;LION;49;14500;7200;192;51;35;36;8400;3000;3503;3553;1;13528;32.14;35.94;34,6;BCS1388054;5;11
009664;13.12.2019;15:41:42;Cycle         ;03.12.2018;FEY;;LION;49;14500;7200;192;51;35;36;8400;3000;3584;3584;1;13009;32.14;33.74;34,5;BCS1388054;5;11
009664;14.12.2019;22:39:35;Stop          ;03.12.2018;FEY;;LION;49;14500;7200;224;52;93;99;8400;;4151;4151;1;13012;26.34;27.54;31,7;BCS1388054;5;11
009664;16.12.2019;07:43:20;Charge to 10% ;03.12.2018;FEY;;LION;49;14500;7200;224;52;93;100;8400;;4146;4145;1;13013;26.14;26.74;31,9;BCS1388054;5;11
009664;16.12.2019;14:34:29;Stop          ;03.12.2018;FEY;;LION;49;14500;7200;192;54;10;10;8400;3000;3366;3367;1;13010;31.84;31.14;32,5;BCS1388054;5;11
009664;16.12.2019;14:44:17;Charge to 90% ;03.12.2018;FEY;;LION;49;14500;7200;192;54;10;10;8400;3000;3369;3369;1;13012;31.04;29.94;31,9;BCS1388054;5;11
009664;16.12.2019;20:48:55;Stop          ;03.12.2018;FEY;;LION;49;14500;7200;192;54;84;90;8400;3000;4059;4059;1;13011;31.14;30.64;31,9;BCS1388054;5;11
009664;17.12.2019;08:37:53;Fastcharge    ;03.12.2018;FEY;;LION;49;14500;7200;192;54;84;90;8400;3000;4048;4048;1;13012;26.24;27.54;31,6;BCS1388054;5;11
009664;17.12.2019;10:33:46;Stop          ;03.12.2018;FEY;;LION;49;14500;7200;224;54;94;100;8400;;4159;4158;1;13012;27.74;28.34;31,1;BCS1388054;5;11
009664;17.12.2019;10:33:46;Stop          ;03.12.2018;FEY;;LION;49;14500;7200;224;54;94;100;8400;;4159;4158;1;13012;27.74;28.34;31,1;BCS1388054;5;11
009664;17.12.2019;13:38:36;Charge to 10% ;03.12.2018;FEY;;LION;49;14500;7200;224;54;94;100;8400;;4150;4149;1;13012;26.54;27.54;30,8;BCS1388054;5;11
009664;17.12.2019;20:33:18;Stop          ;03.12.2018;FEY;;LION;49;14500;7200;192;55;10;10;8400;3000;3367;3367;1;13011;33.44;32.74;34,5;BCS1388054;5;11
009664;18.12.2019;08:31:30;Fastcharge    ;03.12.2018;FEY;;LION;49;14500;7200;192;55;10;11;8400;3000;3376;3376;1;13012;26.34;27.54;31,6;BCS1388054;5;11
009664;18.12.2019;14:29:27;Stop          ;03.12.2018;FEY;;LION;49;14500;7200;224;55;94;100;8400;;4159;4158;1;13012;29.44;29.44;31,7;BCS1388054;5;11
009664;19.12.2019;08:24:02;Charge to 60% ;03.12.2018;FEY;;LION;49;14500;7200;224;55;95;100;8400;;4149;4148;1;13012;26.24;27.64;31,5;BCS1388054;5;11
009664;19.12.2019;11:31:09;Stop          ;03.12.2018;FEY;;LION;49;14500;7200;192;55;57;60;8400;3000;3771;3771;1;13011;33.34;33.04;34,4;BCS1388054;5;11
009664;19.12.2019;12:16:49;Cycle         ;03.12.2018;FEY;;LION;49;14500;7200;192;55;57;60;8400;3000;3780;3781;1;13012;29.84;29.74;32,7;BCS1388054;5;11
009664;20.12.2019;17:27:50;Stop          ;03.12.2018;FEY;;LION;49;14500;7200;224;56;93;100;8400;;4152;4151;1;13014;26.64;27.34;31,0;BCS1388054;5;11
009664;06.01.2020;06:34:55;Charge to 60% ;03.12.2018;FEY;;LION;49;14500;7200;224;56;92;99;8400;;4122;4122;1;13013;26.54;27.74;31,9;BCS1388054;5;11
009664;06.01.2020;09:30:26;Stop          ;03.12.2018;FEY;;LION;49;14500;7200;192;57;57;60;8400;3000;3768;3768;1;13011;32.64;32.54;33,9;BCS1388054;5;11
009664;06.01.2020;09:50:42;Fastcharge    ;03.12.2018;FEY;;LION;49;14500;7200;192;57;57;60;8400;3000;3778;3779;1;13012;30.94;30.44;32,7;BCS1388054;5;11
009664;06.01.2020;13:09:56;Stop          ;03.12.2018;FEY;;LION;49;14500;7200;224;57;94;100;8400;;4158;4158;1;13013;28.94;28.84;31,4;BCS1388054;5;11

File: 009680.txt
Serialnumber ; Date ; Time ; Action ; Date of Manufacture ; Manufacturer ; Battery Name ; Device-Chemistry ; Specification-Info ; Design-Capacity [mAh] ; Design-Voltage [mV] ; Battery Status ; Cycle Count ; SOC [%] ; Relativ SOC[%] ; Desired Voltage [mV]; Desired Current [mA]; Cell Voltage 1 [mV] ; Cell Voltage 2 [mV] ; Max_Error [%] ; Busvoltage[mV] ; Battery Temperature [°C] ; Charger Temperature [°C] ; Batterysystem ; Case ; PLace
009680;10.12.2019;15:28:48;Ladung auf 30% ;04.12.2018;FEY;;LION;49;14500;7200;224;50;92;99;8400;;4129;4128;1;13008;22.94;23.34;27,1;BCS1388054;3;16
009680;10.12.2019;20:47:21;Stop           ;04.12.2018;FEY;;LION;49;14500;7200;192;51;29;30;8400;3000;3561;3560;1;13004;34.44;33.34;33,5;BCS1388054;3;16
009680;11.12.2019;08:48:36;Fastcharge    ;04.12.2018;FEY;;LION;49;14500;7200;192;51;29;30;8400;3000;3569;3568;1;13005;26.64;26.94;31,9;BCS1388054;3;16
009680;11.12.2019;13:39:41;Stop           ;04.12.2018;FEY;;LION;49;14500;7200;224;51;95;100;8400;;4159;4159;1;13004;31.14;29.84;32,5;BCS1388054;3;16
009680;11.12.2019;15:46:24;Ladung auf 10% ;04.12.2018;FEY;;LION;49;14500;7200;224;51;96;100;8400;;4152;4152;1;13006;27.64;27.54;31,4;BCS1388054;3;16
009680;11.12.2019;22:48:44;Stop           ;04.12.2018;FEY;;LION;49;14500;7200;192;52;10;10;8400;3000;3358;3358;1;13004;35.24;33.54;33,6;BCS1388054;3;16
009680;12.12.2019;08:44:58;Normalcharge  ;04.12.2018;FEY;;LION;49;14500;7200;192;52;9;9;8400;3000;3367;3367;1;13005;26.74;27.24;31,9;BCS1388054;3;16
009680;12.12.2019;16:39:24;Stop           ;04.12.2018;FEY;;LION;49;14500;7200;224;52;96;100;8400;;4160;4160;1;13006;30.04;29.34;31,7;BCS1388054;3;16
009680;13.12.2019;10:47:57;Ladung auf 10% ;04.12.2018;FEY;;LION;49;14500;7200;224;52;96;100;8400;;4149;4148;1;13004;26.84;27.24;32,0;BCS1388054;3;16
009680;13.12.2019;15:42:18;Stop           ;04.12.2018;FEY;;LION;49;14500;7200;192;53;35;36;8400;3000;3501;3551;1;13555;34.04;37.54;34,6;BCS1388054;3;16
009680;13.12.2019;15:42:20;Cycle          ;04.12.2018;FEY;;LION;49;14500;7200;192;53;35;36;8400;3000;3501;3551;1;13003;34.04;37.54;34,6;BCS1388054;3;16
009680;14.12.2019;22:36:33;Stop           ;04.12.2018;FEY;;LION;49;14500;7200;224;54;93;100;8400;;4152;4150;1;13006;27.04;27.04;31,6;BCS1388054;3;16
009680;16.12.2019;07:43:10;Ladung auf 10% ;04.12.2018;FEY;;LION;49;14500;7200;224;54;94;100;8400;;4145;4143;1;13006;26.54;26.44;31,9;BCS1388054;3;16
009680;16.12.2019;14:34:27;Stop           ;04.12.2018;FEY;;LION;49;14500;7200;192;55;10;10;8400;3000;3364;3363;1;13005;34.04;32.84;32,5;BCS1388054;3;16
009680;16.12.2019;14:44:07;Ladung auf 90% ;04.12.2018;FEY;;LION;49;14500;7200;192;55;10;10;8400;3000;3367;3366;1;13006;33.24;31.04;31,7;BCS1388054;3;16
009680;16.12.2019;20:48:39;Stop           ;04.12.2018;FEY;;LION;49;14500;7200;192;55;84;90;8400;3000;4054;4055;1;13006;32.94;31.74;31,9;BCS1388054;3;16
009680;17.12.2019;08:37:45;Fastcharge    ;04.12.2018;FEY;;LION;49;14500;7200;192;55;84;90;8400;3000;4043;4043;1;13006;26.64;26.94;31,5;BCS1388054;3;16
009680;17.12.2019;10:30:44;Stop           ;04.12.2018;FEY;;LION;49;14500;7200;224;55;95;100;8400;;4162;4163;1;13006;28.64;28.84;31,4;BCS1388054;3;16
009680;17.12.2019;13:38:28;Ladung auf 10% ;04.12.2018;FEY;;LION;49;14500;7200;224;55;95;100;8400;;4150;4150;1;13006;27.04;27.14;30,8;BCS1388054;3;16
009680;17.12.2019;20:32:04;Stop           ;04.12.2018;FEY;;LION;49;14500;7200;192;56;10;10;8400;3000;3360;3360;1;13005;35.44;34.24;34,6;BCS1388054;3;16
009680;18.12.2019;08:31:22;Fastcharge    ;04.12.2018;FEY;;LION;49;14500;7200;192;56;10;10;8400;3000;3371;3372;1;13006;26.74;27.14;31,6;BCS1388054;3;16
009680;18.12.2019;14:26:33;Stop           ;04.12.2018;FEY;;LION;49;14500;7200;224;56;94;100;8400;;4160;4162;1;13004;31.24;29.94;32,5;BCS1388054;3;16
009680;19.12.2019;08:23:54;Ladung auf 60% ;04.12.2018;FEY;;LION;49;14500;7200;224;56;96;100;8400;;4148;4150;1;13006;26.64;26.94;31,6;BCS1388054;3;16
009680;19.12.2019;11:28:29;Stop           ;04.12.2018;FEY;;LION;49;14500;7200;192;57;57;60;8400;3000;3759;3761;1;13004;35.04;35.94;35,1;BCS1388054;3;16
009680;19.12.2019;12:16:41;Cycle          ;04.12.2018;FEY;;LION;49;14500;7200;192;57;57;60;8400;3000;3773;3778;1;13005;31.54;29.74;32,7;BCS1388054;3;16
009680;20.12.2019;17:23:28;Stop           ;04.12.2018;FEY;;LION;49;14500;7200;224;58;94;100;8400;;4152;4153;1;13005;27.14;27.24;31,9;BCS1388054;3;16
009680;06.01.2020;06:34:46;Ladung auf 60% ;04.12.2018;FEY;;LION;49;14500;7200;224;58;93;99;8400;;4122;4123;1;13006;26.74;26.94;31,9;BCS1388054;3;16
009680;06.01.2020;09:29:20;Stop           ;04.12.2018;FEY;;LION;49;14500;7200;192;58;57;60;8400;3000;3763;3766;1;13006;34.14;34.54;34,2;BCS1388054;3;16
009680;06.01.2020;09:50:34;Fastcharge    ;04.12.2018;FEY;;LION;49;14500;7200;192;58;57;60;8400;3000;3775;3778;1;13006;32.64;30.54;32,7;BCS1388054;3;16
009680;06.01.2020;13:06:26;Stop           ;04.12.2018;FEY;;LION;49;14500;7200;224;58;94;100;8400;;4159;4160;1;13006;30.64;29.64;32,1;BCS1388054;3;16

File: 009688.txt
Serialnumber ; Date ; Time ; Action ; Date of Manufacture ; Manufacturer ; Battery Name ; Device-Chemistry ; Specification-Info ; Design-Capacity [mAh] ; Design-Voltage [mV] ; Battery Status ; Cycle Count ; SOC [%] ; Relativ SOC[%] ; Desired Voltage [mV]; Desired Current [mA]; Cell Voltage 1 [mV] ; Cell Voltage 2 [mV] ; Max_Error [%] ; Busvoltage[mV] ; Battery Temperature [°C] ; Charger Temperature [°C] ; Batterysystem ; Case ; PLace
009688;07.12.2020;04:14:36;Cycle         ;04.12.2018;FEY;;LION;49;14500;7200;192;2;99;98;8400;;4138;4141;1;13009;25.74;27.44;30,3;BCS1388054;6;11
009688;08.12.2020;16:20:13;Stop          ;04.12.2018;FEY;;LION;49;14500;7200;192;2;99;98;8400;;4135;4138;1;13011;27.74;28.84;31,9;BCS1388054;6;11
009688;12.01.2021;04:17:33;Charge to 90% ;04.12.2018;FEY;;LION;49;14500;7200;192;2;98;97;8400;;4122;4124;1;12998;23.14;23.44;23,6;BCS1388054;4;11
009688;12.01.2021;04:57:16;Stop          ;04.12.2018;FEY;;LION;49;14500;7200;192;2;91;90;8400;3000;4058;4060;1;12994;27.14;27.74;31,6;BCS1388054;4;11
009688;12.01.2021;05:21:49;Cycle         ;04.12.2018;FEY;;LION;49;14500;7200;192;2;91;90;8400;3000;4061;4063;1;12995;27.14;26.74;30,4;BCS1388054;4;11
009688;13.01.2021;08:19:19;Stop          ;04.12.2018;FEY;;LION;49;14500;7200;224;3;98;100;8400;;4156;4157;1;12995;27.14;27.04;30,7;BCS1388054;4;11
009688;03.03.2021;08:17:17;Normalcharge  ;04.12.2018;FEY;;LION;49;14500;7200;192;3;94;95;8400;3000;4092;4092;1;13009;23.24;24.34;23,5;BCS1388054;2;12
009688;04.03.2021;07:53:46;Stop          ;04.12.2018;FEY;;LION;49;14500;7200;224;3;99;100;8400;;4148;4149;1;12999;26.34;27.54;31,6;BCS1388054;2;12

File: 009702.txt
Serialnumber ; Date ; Time ; Action ; Date of Manufacture ; Manufacturer ; Battery Name ; Device-Chemistry ; Specification-Info ; Design-Capacity [mAh] ; Design-Voltage [mV] ; Battery Status ; Cycle Count ; SOC [%] ; Relativ SOC[%] ; Desired Voltage [mV]; Desired Current [mA]; Cell Voltage 1 [mV] ; Cell Voltage 2 [mV] ; Max_Error [%] ; Busvoltage[mV] ; Battery Temperature [°C] ; Charger Temperature [°C] ; Batterysystem ; Case ; PLace
009702;24.11.2020;08:56:08;Normalcharge  ;04.12.2018;FEY;;LION;49;14500;7200;192;3;65;70;8400;3000;3853;3855;1;13006;24.04;25.14;25,7;BCS1388054;1;17
009702;24.11.2020;08:59:34;Stop          ;04.12.2018;FEY;;LION;49;14500;7200;128;3;66;70;8400;3000;3867;3868;1;12919;24.44;28.44;26,4;BCS1388054;1;17
009702;24.11.2020;08:59:41;Normalcharge  ;04.12.2018;FEY;;LION;49;14500;7200;128;3;66;70;8400;3000;3864;3869;1;13002;24.44;28.24;26,4;BCS1388054;1;17
009702;24.11.2020;16:23:04;Stop          ;04.12.2018;FEY;;LION;49;14500;7200;224;3;94;100;8400;;4154;4157;1;13000;26.84;27.74;28,5;BCS1388054;1;17
009702;07.12.2020;04:14:17;Cycle         ;04.12.2018;FEY;;LION;49;14500;7200;224;3;93;100;8400;;4142;4144;1;12994;25.94;28.54;30,3;BCS1388054;1;8
009702;08.12.2020;16:19:38;Stop          ;04.12.2018;FEY;;LION;49;14500;7200;224;4;95;100;8400;;4152;4154;1;12993;27.84;29.94;31,9;BCS1388054;1;8
009702;03.03.2021;08:17:35;Normalcharge  ;04.12.2018;FEY;;LION;49;14500;7200;192;4;69;73;8400;3000;3875;3876;1;13021;23.44;23.64;23,6;BCS1388054;5;18
009702;03.03.2021;11:26:36;Stop          ;04.12.2018;FEY;;LION;49;14500;7200;224;4;95;100;8400;;4160;4161;1;13015;28.54;30.04;31,5;BCS1388054;5;18