Folder: Battery_sort_V2/reader/backup_20210330/Batterieverzeichnis

Note: reader/backup_20210330/Batterieverzeichnis/009652.txt
Serialnumber ; Date ; Time ; Action ; Date of Manufacture ; Manufacturer ; Battery Name ; Device-Chemistry ; Specification-Info ; Design-Capacity [mAh] ; Design-Voltage [mV] ; Battery Status ; Cycle Count ; SOC [%] ; Relativ SOC[%] ; Desired Voltage [mV]; Desired Current [mA]; Cell Voltage 1 [mV] ; Cell Voltage 2 [mV] ; Max_Error [%] ; Busvoltage[mV] ; Battery Temperature [°C] ; Charger Temperature [°C] ; Batterysystem ; Case ; PLace
009652;07.12.2020;04:14:25;Cycle          ;04.12.2018;FEY;;LION;49;14500;7200;16576;2;99;99;;;4151;4153;1;13010;25.64;27.94;30,3;BCS1388054;3;3
009652;08.12.2020;16:19:50;Stop           ;04.12.2018;FEY;;LION;49;14500;7200;16576;2;99;99;;;4148;4150;1;13012;27.84;29.54;31,9;BCS1388054;3;3
009652;03.03.2021;08:17:40;Normalcharge  ;04.12.2018;FEY;;LION;49;14500;7200;192;2;72;72;8400;3000;3870;3871;1;13015;23.14;23.74;23,6;BCS1388054;6;3
009652;03.03.2021;11:56:52;Stop          ;04.12.2018;FEY;;LION;49;14500;7200;224;2;100;100;8400;;4158;4159;1;13009;28.04;29.84;31,7;BCS1388054;6;3

Note: reader/backup_20210330/Batterieverzeichnis/009656.txt
Serialnumber ; Date ; Time ; Action ; Date of Manufacture ; Manufacturer ; Battery Name ; Device-Chemistry ; Specification-Info ; Design-Capacity [mAh] ; Design-Voltage [mV] ; Battery Status ; Cycle Count ; SOC [%] ; Relativ SOC[%] ; Desired Voltage [mV]; Desired Current [mA]; Cell Voltage 1 [mV] ; Cell Voltage 2 [mV] ; Max_Error [%] ; Busvoltage[mV] ; Battery Temperature [°C] ; Charger Temperature [°C] ; Batterysystem ; Case ; PLace
009656;12.01.2021;04:17:22;Charge to 90% ;03.12.2018;FEY;;LION;49;14500;7200;16576;2;96;98;;;4133;4133;1;12992;22.54;23.94;23,5;BCS1388054;2;18
009656;12.01.2021;04:54:21;Stop          ;03.12.2018;FEY;;LION;49;14500;7200;192;3;89;90;8400;3000;4047;4046;1;12986;27.34;33.54;31,9;BCS1388054;2;18
009656;12.01.2021;05:21:40;Cycle         ;03.12.2018;FEY;;LION;49;14500;7200;192;3;89;90;8400;3000;4058;4058;1;12986;26.74;28.54;30,6;BCS1388054;2;18
009656;13.01.2021;08:20:19;Stop          ;03.12.2018;FEY;;LION;49;14500;7200;224;4;96;100;8400;;4156;4154;1;12985;26.14;28.34;30,8;BCS1388054;2;18
009656;03.03.2021;08:17:17;Normalcharge  ;03.12.2018;FEY;;LION;49;14500;7200;192;4;91;94;8400;3000;4081;4080;1;12994;22.54;23.74;23,5;BCS1388054;2;18
009656;04.03.2021;07:53:46;Stop          ;03.12.2018;FEY;;LION;49;14500;7200;224;4;97;100;8400;;4148;4147;1;12986;25.74;27.94;31,6;BCS1388054;2;18

Note: reader/backup_20210330/Batterieverzeichnis/009661.txt
Serialnumber ; Date ; Time ; Action ; Date of Manufacture ; Manufacturer ; Battery Name ; Device-Chemistry ; Specification-Info ; Design-Capacity [mAh] ; Design-Voltage [mV] ; Battery Status ; Cycle Count ; SOC [%] ; Relativ SOC[%] ; Desired Voltage [mV]; Desired Current [mA]; Cell Voltage 1 [mV] ; Cell Voltage 2 [mV] ; Max_Error [%] ; Busvoltage[mV] ; Battery Temperature [°C] ; Charger Temperature [°C] ; Batterysystem ; Case ; PLace
009661;07.12.2020;04:14:21;Cycle         ;03.12.2018;FEY;;LION;49;14500;7200;224;3;97;99;8400;;4137;4136;1;13009;24.94;27.54;30,3;BCS1388054;2;9
009661;08.12.2020;16:19:44;Stop          ;03.12.2018;FEY;;LION;49;14500;7200;224;4;98;100;8400;;4153;4153;1;13009;27.14;29.14;31,9;BCS1388054;2;9
009661;03.03.2021;08:17:08;Normalcharge  ;03.12.2018;FEY;;LION;49;14500;7200;192;4;95;98;8400;;4117;4117;1;12998;22.44;23.04;23,5;BCS1388054;1;5
009661;04.03.2021;07:53:50;Stop          ;03.12.2018;FEY;;LION;49;14500;7200;192;4;95;98;8400;;4116;4116;1;12992;25.34;26.64;31,6;BCS1388054;1;5

Note: reader/backup_20210330/Batterieverzeichnis/009749.txt
Serialnumber ; Date ; Time ; Action ; Date of Manufacture ; Manufacturer ; Battery Name ; Device-Chemistry ; Specification-Info ; Design-Capacity [mAh] ; Design-Voltage [mV] ; Battery Status ; Cycle Count ; SOC [%] ; Relativ SOC[%] ; Desired Voltage [mV]; Desired Current [mA]; Cell Voltage 1 [mV] ; Cell Voltage 2 [mV] ; Max_Error [%] ; Busvoltage[mV] ; Battery Temperature [°C] ; Charger Temperature [°C] ; Batterysystem ; Case ; PLace
009749;07.02.2021;08:47:00;Normalcharge  ;04.12.2018;FEY;;LION;49;14500;7200;192;5;90;93;8400;3000;4063;4062;1;13004;23.54;26.44;29,2;BCS1388054;4;7
009749;07.02.2021;11:52:20;Stop          ;04.12.2018;FEY;;LION;49;14500;7200;224;5;98;100;8400;;4150;4147;1;13004;26.14;27.74;29,7;BCS1388054;4;7
009749;03.03.2021;08:17:17;Normalcharge  ;04.12.2018;FEY;;LION;49;14500;7200;192;5;91;94;8400;3000;4082;4080;1;13009;23.24;23.74;23,5;BCS1388054;2;17
009749;04.03.2021;07:53:46;Stop          ;04.12.2018;FEY;;LION;49;14500;7200;224;5;97;100;8400;;4145;4142;1;13001;26.34;28.24;31,6;BCS1388054;2;17

Note: reader/backup_20210330/Batterieverzeichnis/009780.txt
Serialnumber ; Date ; Time ; Action ; Date of Manufacture ; Manufacturer ; Battery Name ; Device-Chemistry ; Specification-Info ; Design-Capacity [mAh] ; Design-Voltage [mV] ; Battery Status ; Cycle Count ; SOC [%] ; Relativ SOC[%] ; Desired Voltage [mV]; Desired Current [mA]; Cell Voltage 1 [mV] ; Cell Voltage 2 [mV] ; Max_Error [%] ; Busvoltage[mV] ; Battery Temperature [°C] ; Charger Temperature [°C] ; Batterysystem ; Case ; PLace
009780;30.11.2020;09:42:55;Stop          ;04.12.2018;FEY;;LION;49;14500;7200;16576;2;98;99;;;4153;4155;1;13024;27.44;29.44;31,7;BCS1388054;7;2
009780;12.01.2021;04:17:28;Ladung auf 90% ;04.12.2018;FEY;;LION;49;14500;7200;16576;2;97;97;;;4133;4134;1;13014;22.84;23.44;23,6;BCS1388054;3;15
009780;12.01.2021;04:57:30;Stop           ;04.12.2018;FEY;;LION;49;14500;7200;192;2;90;90;8400;3000;4060;4061;1;13009;26.64;30.74;31,5;BCS1388054;3;15
009780;12.01.2021;05:21:45;Cycle          ;04.12.2018;FEY;;LION;49;14500;7200;192;2;90;90;8400;3000;4065;4066;1;13010;26.84;28.54;30,4;BCS1388054;3;15
009780;13.01.2021;08:23:25;Stop           ;04.12.2018;FEY;;LION;49;14500;7200;224;4;96;100;8400;;4155;4157;1;13010;27.04;28.44;31,4;BCS1388054;3;15
009780;21.02.2021;13:43:19;Normalcharge  ;04.12.2018;FEY;;LION;49;14500;7200;192;4;46;48;8400;3000;3640;3641;1;12995;23.44;26.14;27,5;BCS1388054;1;14
009780;22.02.2021;17:08:49;Stop          ;04.12.2018;FEY;;LION;49;14500;7200;224;4;97;100;8400;;4148;4148;1;12994;25.94;28.24;30,0;BCS1388054;1;14

Note: reader/backup_20210330/Batterieverzeichnis/009785.txt
Serialnumber ; Date ; Time ; Action ; Date of Manufacture ; Manufacturer ; Battery Name ; Device-Chemistry ; Specification-Info ; Design-Capacity [mAh] ; Design-Voltage [mV] ; Battery Status ; Cycle Count ; SOC [%] ; Relativ SOC[%] ; Desired Voltage [mV]; Desired Current [mA]; Cell Voltage 1 [mV] ; Cell Voltage 2 [mV] ; Max_Error [%] ; Busvoltage[mV] ; Battery Temperature [°C] ; Charger Temperature [°C] ; Batterysystem ; Case ; PLace
009785;01.12.2020;07:38:36;Cycle         ;04.12.2018;FEY;;LION;49;14500;7200;192;3;18;19;8400;3000;3447;3449;1;13008;25.54;25.74;28,8;BCS1388054;2;1
009785;02.12.2020;16:21:01;Stop          ;04.12.2018;FEY;;LION;49;14500;7200;224;4;98;100;8400;;4157;4156;1;13002;26.64;28.34;29,3;BCS1388054;2;1
009785;03.03.2021;08:17:08;Normalcharge  ;04.12.2018;FEY;;LION;49;14500;7200;192;4;95;97;8400;;4105;4105;1;13008;23.14;22.54;23,5;BCS1388054;1;10
009785;04.03.2021;07:53:51;Stop          ;04.12.2018;FEY;;LION;49;14500;7200;192;4;94;97;8400;;4104;4104;1;13000;26.04;26.64;31,6;BCS1388054;1;10

Note: reader/backup_20210330/Batterieverzeichnis/009786.txt
009786;29.11.2020;04:36:38;Cycle         ;03.12.2018;FEY;;LION;49;14500;7200;16576;3;99;99;;;4154;4152;1;13018;23.14;21.74;27,9;BCS1388054;4;18
009786;12.01.2021;04:17:28;Ladung auf 90% ;03.12.2018;FEY;;LION;49;14500;7200;16576;3;97;97;;;4130;4129;1;13014;23.24;22.74;23,6;BCS1388054;3;17
009786;12.01.2021;04:57:30;Stop           ;03.12.2018;FEY;;LION;49;14500;7200;192;3;91;90;8400;3000;4059;4058;1;13008;27.24;29.74;31,5;BCS1388054;3;17
009786;12.01.2021;05:21:45;Cycle          ;03.12.2018;FEY;;LION;49;14500;7200;192;3;91;90;8400;3000;4065;4063;1;13010;27.44;27.74;30,4;BCS1388054;3;17
009786;13.01.2021;08:23:25;Stop           ;03.12.2018;FEY;;LION;49;14500;7200;224;4;98;100;8400;;4155;4155;1;13009;27.24;27.54;31,4;BCS1388054;3;17
009786;21.02.2021;13:43:19;Normalcharge  ;03.12.2018;FEY;;LION;49;14500;7200;192;5;61;63;8400;3000;3784;3784;1;13000;23.94;25.04;27,5;BCS1388054;1;18
009786;22.02.2021;17:08:49;Stop          ;03.12.2018;FEY;;LION;49;14500;7200;224;5;98;100;8400;;4147;4146;1;12999;26.04;26.94;30,0;BCS1388054;1;18

File: 009526.txt
Serialnumber ; Date ; Time ; Action ; Date of Manufacture ; Manufacturer ; Battery Name ; Device-Chemistry ; Specification-Info ; Design-Capacity [mAh] ; Design-Voltage [mV] ; Battery Status ; Cycle Count ; SOC [%] ; Relativ SOC[%] ; Desired Voltage [mV]; Desired Current [mA]; Cell Voltage 1 [mV] ; Cell Voltage 2 [mV] ; Max_Error [%] ; Busvoltage[mV] ; Battery Temperature [°C] ; Charger Temperature [°C] ; Batterysystem ; Case ; PLace
009526;10.12.2019;15:28:40;Charge to 30% ;04.12.2018;FEY;;LION;49;14500;7200;224;52;93;99;8400;;4132;4132;1;13012;23.04;24.54;27,1;BCS1388054;2;1
009526;10.12.2019;20:48:37;Stop          ;04.12.2018;FEY;;LION;49;14500;7200;192;53;29;30;8400;3000;3560;3561;1;13010;33.34;33.84;33,2;BCS1388054;2;1
009526;11.12.2019;08:48:24;Fastcharge    ;04.12.2018;FEY;;LION;49;14500;7200;192;53;29;30;8400;3000;3568;3569;1;13010;26.44;28.24;31,9;BCS1388054;2;1
009526;11.12.2019;13:39:47;Stop          ;04.12.2018;FEY;;LION;49;14500;7200;224;53;94;100;8400;;4160;4160;1;13010;30.14;30.74;32,5;BCS1388054;2;1
009526;11.12.2019;15:46:18;Charge to 10% ;04.12.2018;FEY;;LION;49;14500;7200;224;53;95;99;8400;;4152;4153;1;13011;27.24;28.74;31,4;BCS1388054;2;1
009526;11.12.2019;22:49:04;Stop          ;04.12.2018;FEY;;LION;49;14500;7200;192;54;10;10;8400;3000;3352;3354;1;13009;34.24;34.34;33,6;BCS1388054;2;1
009526;12.12.2019;08:44:52;Normalcharge  ;04.12.2018;FEY;;LION;49;14500;7200;192;54;9;10;8400;3000;3363;3364;1;13011;26.54;28.44;31,9;BCS1388054;2;1
009526;12.12.2019;16:40:06;Stop          ;04.12.2018;FEY;;LION;49;14500;7200;224;54;95;100;8400;;4159;4159;1;13011;29.24;30.24;31,7;BCS1388054;2;1
009526;13.12.2019;10:47:50;Charge to 10% ;04.12.2018;FEY;;LION;49;14500;7200;224;54;95;100;8400;;4147;4147;1;13011;26.64;28.54;32,0;BCS1388054;2;1
009526;13.12.2019;15:42:08;Cycle         ;04.12.2018;FEY;;LION;49;14500;7200;192;55;34;36;8400;3000;3499;3550;1;13559;33.14;38.44;34,6;BCS1388054;2;1
009526;13.12.2019;15:42:08;Stop          ;04.12.2018;FEY;;LION;49;14500;7200;192;55;34;36;8400;3000;3499;3550;1;13559;33.14;38.44;34,6;BCS1388054;2;1
009526;14.12.2019;22:48:51;Stop          ;04.12.2018;FEY;;LION;49;14500;7200;224;56;93;100;8400;;4151;4153;1;13012;26.74;28.44;32,0;BCS1388054;2;1
009526;16.12.2019;07:43:06;Charge to 10% ;04.12.2018;FEY;;LION;49;14500;7200;224;56;93;100;8400;;4145;4147;1;13011;26.34;28.04;31,9;BCS1388054;2;1
009526;16.12.2019;14:37:54;Stop          ;04.12.2018;FEY;;LION;49;14500;7200;192;57;10;10;8400;3000;3364;3366;1;13010;32.84;32.54;32,4;BCS1388054;2;1
009526;16.12.2019;14:44:03;Charge to 90% ;04.12.2018;FEY;;LION;49;14500;7200;192;57;10;10;8400;3000;3365;3368;1;13011;32.34;31.74;31,9;BCS1388054;2;1
009526;16.12.2019;20:51:09;Stop          ;04.12.2018;FEY;;LION;49;14500;7200;192;57;84;90;8400;3000;4056;4057;1;13013;31.64;31.54;31,6;BCS1388054;2;1
009526;17.12.2019;08:37:40;Fastcharge    ;04.12.2018;FEY;;LION;49;14500;7200;192;57;84;90;8400;3000;4047;4048;1;13011;26.44;28.14;31,6;BCS1388054;2;1
009526;17.12.2019;10:30:36;Stop          ;04.12.2018;FEY;;LION;49;14500;7200;224;57;94;100;8400;;4161;4161;1;13011;27.94;29.64;31,5;BCS1388054;2;1
009526;17.12.2019;13:38:22;Charge to 10% ;04.12.2018;FEY;;LION;49;14500;7200;224;57;94;100;8400;;4149;4149;1;13012;26.74;28.34;30,8;BCS1388054;2;1
009526;17.12.2019;20:36:00;Stop          ;04.12.2018;FEY;;LION;49;14500;7200;192;59;10;10;8400;3000;3364;3365;1;13011;33.94;33.84;33,6;BCS1388054;2;1
009526;18.12.2019;08:31:17;Fastcharge    ;04.12.2018;FEY;;LION;49;14500;7200;192;59;10;10;8400;3000;3373;3374;1;13011;26.54;28.34;31,6;BCS1388054;2;1
009526;18.12.2019;14:28:27;Stop          ;04.12.2018;FEY;;LION;49;14500;7200;224;59;94;100;8400;;4159;4158;1;13011;30.14;30.64;32,0;BCS1388054;2;1
009526;19.12.2019;08:23:50;Charge to 60% ;04.12.2018;FEY;;LION;49;14500;7200;224;59;95;100;8400;;4148;4146;1;13010;26.44;28.24;31,5;BCS1388054;2;1
009526;19.12.2019;11:32:11;Stop          ;04.12.2018;FEY;;LION;49;14500;7200;192;59;57;60;8400;3000;3771;3771;1;13011;33.84;34.44;34,0;BCS1388054;2;1
009526;19.12.2019;12:16:37;Cycle         ;04.12.2018;FEY;;LION;49;14500;7200;192;59;57;60;8400;3000;3779;3780;1;13012;30.74;30.64;32,7;BCS1388054;2;1
009526;20.12.2019;17:35:47;Stop          ;04.12.2018;FEY;;LION;49;14500;7200;224;60;93;100;8400;;4151;4151;1;13012;26.74;28.24;31,1;BCS1388054;2;1
009526;06.01.2020;06:34:42;Charge to 60% ;04.12.2018;FEY;;LION;49;14500;7200;224;60;92;99;8400;;4122;4122;1;13012;26.44;28.24;31,9;BCS1388054;2;1
009526;06.01.2020;09:32:11;Stop          ;04.12.2018;FEY;;LION;49;14500;7200;192;61;57;60;8400;3000;3768;3770;1;13011;33.04;33.74;33,2;BCS1388054;2;1
009526;06.01.2020;09:50:30;Fastcharge    ;04.12.2018;FEY;;LION;49;14500;7200;192;61;57;60;8400;3000;3775;3777;1;13013;31.84;31.34;32,7;BCS1388054;2;1
009526;06.01.2020;13:08:34;Stop          ;04.12.2018;FEY;;LION;49;14500;7200;224;61;94;100;8400;;4159;4159;1;13013;29.54;30.14;31,6;BCS1388054;2;1

File: 009554.txt
Serialnumber ; Date ; Time ; Action ; Date of Manufacture ; Manufacturer ; Battery Name ; Device-Chemistry ; Specification-Info ; Design-Capacity [mAh] ; Design-Voltage [mV] ; Battery Status ; Cycle Count ; SOC [%] ; Relativ SOC[%] ; Desired Voltage [mV]; Desired Current [mA]; Cell Voltage 1 [mV] ; Cell Voltage 2 [mV] ; Max_Error [%] ; Busvoltage[mV] ; Battery Temperature [°C] ; Charger Temperature [°C] ; Batterysystem ; Case ; PLace
009554;10.12.2019;15:29:01;Charge to 30% ;04.12.2018;FEY;;LION;49;14500;7200;224;50;93;100;8400;;4129;4129;1;13015;22.64;25.34;27,1;BCS1388054;5;5
009554;10.12.2019;20:48:54;Stop          ;04.12.2018;FEY;;LION;49;14500;7200;192;50;29;30;8400;3000;3558;3558;1;13014;32.94;32.84;33,1;BCS1388054;5;5
009554;11.12.2019;08:48:53;Fastcharge    ;04.12.2018;FEY;;LION;49;14500;7200;192;50;29;30;8400;3000;3567;3567;1;13013;26.44;28.74;31,9;BCS1388054;5;5
009554;11.12.2019;13:40:11;Stop          ;04.12.2018;FEY;;LION;49;14500;7200;224;50;95;100;8400;;4162;4162;1;13014;29.44;30.34;32,4;BCS1388054;5;5
009554;11.12.2019;15:46:40;Charge to 10% ;04.12.2018;FEY;;LION;49;14500;7200;224;50;96;100;8400;;4152;4152;1;13014;27.14;28.74;31,4;BCS1388054;5;5
009554;11.12.2019;22:49:07;Stop          ;04.12.2018;FEY;;LION;49;14500;7200;192;52;10;10;8400;3000;3350;3350;1;13013;33.64;33.44;33,5;BCS1388054;5;5
009554;12.12.2019;08:45:10;Normalcharge  ;04.12.2018;FEY;;LION;49;14500;7200;192;52;9;10;8400;3000;3362;3362;1;13014;26.64;28.64;31,7;BCS1388054;5;5
009554;12.12.2019;16:41:20;Stop          ;04.12.2018;FEY;;LION;49;14500;7200;224;52;96;100;8400;;4161;4161;1;13013;28.84;29.74;31,6;BCS1388054;5;5
009554;13.12.2019;10:48:05;Charge to 10% ;04.12.2018;FEY;;LION;49;14500;7200;224;52;96;100;8400;;4148;4148;1;13014;26.64;28.94;32,0;BCS1388054;5;5
009554;13.12.2019;15:40:55;Stop          ;04.12.2018;FEY;;LION;49;14500;7200;192;52;35;37;8400;3000;3501;3553;1;13522;32.34;36.24;34,6;BCS1388054;5;5
009554;13.12.2019;15:41:42;Cycle         ;04.12.2018;FEY;;LION;49;14500;7200;192;52;35;37;8400;3000;3583;3583;1;13013;32.34;34.04;34,5;BCS1388054;5;5
009554;14.12.2019;22:39:35;Stop          ;04.12.2018;FEY;;LION;49;14500;7200;224;54;93;99;8400;;4150;4151;1;13014;26.64;28.64;31,7;BCS1388054;5;5
009554;16.12.2019;07:43:20;Charge to 10% ;04.12.2018;FEY;;LION;49;14500;7200;224;54;93;100;8400;;4144;4145;1;13015;26.44;27.74;31,9;BCS1388054;5;5
009554;16.12.2019;14:34:29;Stop          ;04.12.2018;FEY;;LION;49;14500;7200;192;55;10;10;8400;3000;3362;3363;1;13014;32.14;31.94;32,5;BCS1388054;5;5
009554;16.12.2019;14:44:17;Charge to 90% ;04.12.2018;FEY;;LION;49;14500;7200;192;55;10;10;8400;3000;3366;3367;1;13014;31.34;30.64;31,9;BCS1388054;5;5
009554;16.12.2019;20:48:55;Stop          ;04.12.2018;FEY;;LION;49;14500;7200;192;55;84;90;8400;3000;4057;4057;1;13014;31.14;31.24;31,9;BCS1388054;5;5
009554;17.12.2019;08:37:53;Fastcharge    ;04.12.2018;FEY;;LION;49;14500;7200;192;55;84;90;8400;3000;4045;4045;1;13014;26.44;28.64;31,6;BCS1388054;5;5
009554;17.12.2019;10:33:46;Stop          ;04.12.2018;FEY;;LION;49;14500;7200;224;55;95;100;8400;;4159;4158;1;13016;27.94;29.24;31,1;BCS1388054;5;5
009554;17.12.2019;10:33:46;Stop          ;04.12.2018;FEY;;LION;49;14500;7200;224;55;95;100;8400;;4159;4158;1;13016;27.94;29.24;31,1;BCS1388054;5;5
009554;17.12.2019;13:38:36;Charge to 10% ;04.12.2018;FEY;;LION;49;14500;7200;224;55;95;100;8400;;4148;4148;1;13014;26.74;28.54;30,8;BCS1388054;5;5
009554;17.12.2019;20:33:18;Stop          ;04.12.2018;FEY;;LION;49;14500;7200;192;56;10;10;8400;3000;3360;3360;1;13014;33.54;33.54;34,5;BCS1388054;5;5
009554;18.12.2019;08:31:30;Fastcharge    ;04.12.2018;FEY;;LION;49;14500;7200;192;56;9;10;8400;3000;3371;3371;1;13014;26.64;28.54;31,6;BCS1388054;5;5
009554;18.12.2019;14:29:27;Stop          ;04.12.2018;FEY;;LION;49;14500;7200;224;56;94;100;8400;;4161;4159;1;13015;29.44;30.14;31,7;BCS1388054;5;5
009554;19.12.2019;08:24:02;Charge to 60% ;04.12.2018;FEY;;LION;49;14500;7200;224;56;95;100;8400;;4148;4146;1;13015;26.54;28.64;31,5;BCS1388054;5;5
009554;19.12.2019;11:31:09;Stop          ;04.12.2018;FEY;;LION;49;14500;7200;192;56;57;60;8400;3000;3765;3766;1;13013;33.54;33.54;34,4;BCS1388054;5;5
009554;19.12.2019;12:16:49;Cycle         ;04.12.2018;FEY;;LION;49;14500;7200;192;56;57;60;8400;3000;3775;3776;1;13014;29.94;30.54;32,7;BCS1388054;5;5
009554;20.12.2019;17:27:50;Stop          ;04.12.2018;FEY;;LION;49;14500;7200;224;58;93;100;8400;;4151;4150;1;13016;26.84;28.24;31,0;BCS1388054;5;5
009554;06.01.2020;06:34:55;Charge to 60% ;04.12.2018;FEY;;LION;49;14500;7200;192;58;92;98;8400;;4121;4120;1;13016;26.74;28.74;31,9;BCS1388054;5;5
009554;06.01.2020;09:30:26;Stop          ;04.12.2018;FEY;;LION;49;14500;7200;192;58;57;60;8400;3000;3769;3771;1;13015;32.74;32.94;33,9;BCS1388054;5;5
009554;06.01.2020;09:50:42;Fastcharge    ;04.12.2018;FEY;;LION;49;14500;7200;192;58;57;60;8400;3000;3778;3779;1;13015;31.14;31.24;32,7;BCS1388054;5;5
009554;06.01.2020;13:09:56;Stop          ;04.12.2018;FEY;;LION;49;14500;7200;224;58;94;100;8400;;4159;4158;1;13015;28.94;29.44;31,4;BCS1388054;5;5

File: 009564.txt
Serialnumber ; Date ; Time ; Action ; Date of Manufacture ; Manufacturer ; Battery Name ; Device-Chemistry ; Specification-Info ; Design-Capacity [mAh] ; Design-Voltage [mV] ; Battery Status ; Cycle Count ; SOC [%] ; Relativ SOC[%] ; Desired Voltage [mV]; Desired Current [mA]; Cell Voltage 1 [mV] ; Cell Voltage 2 [mV] ; Max_Error [%] ; Busvoltage[mV] ; Battery Temperature [°C] ; Charger Temperature [°C] ; Batterysystem ; Case ; PLace
009564;07.12.2020;04:14:36;Cycle         ;03.12.2018;FEY;;LION;49;14500;7200;192;1;98;97;8400;;4137;4136;1;13010;24.44;28.24;30,3;BCS1388054;6;17
009564;08.12.2020;16:20:13;Stop          ;03.12.2018;FEY;;LION;49;14500;7200;192;1;98;97;8400;;4135;4134;1;13009;26.44;29.94;31,9;BCS1388054;6;17
009564;12.01.2021;04:17:40;Charge to 90% ;03.12.2018;FEY;;LION;49;14500;7200;192;2;92;91;8400;3000;4066;4065;1;13001;21.84;23.34;23,6;BCS1388054;6;7
009564;12.01.2021;05:00:55;Stop          ;03.12.2018;FEY;;LION;49;14500;7200;192;2;91;90;8400;3000;4058;4058;1;12994;25.24;29.54;31,2;BCS1388054;6;7
009564;12.01.2021;05:21:57;Cycle         ;03.12.2018;FEY;;LION;49;14500;7200;192;2;91;90;8400;3000;4058;4058;1;12996;25.64;28.24;30,4;BCS1388054;6;7
009564;13.01.2021;08:31:18;Stop          ;03.12.2018;FEY;;LION;49;14500;7200;224;3;97;100;8400;;4156;4157;1;12997;25.84;28.24;31,1;BCS1388054;6;7
009564;21.02.2021;13:43:49;Normalcharge  ;03.12.2018;FEY;;LION;49;14500;7200;224;3;96;99;8400;;4131;4132;1;13014;21.64;23.04;27,7;BCS1388054;3;15
009564;21.02.2021;20:44:52;Stop           ;03.12.2018;FEY;;LION;49;14500;7200;224;3;96;99;8400;;4131;4132;1;13010;25.44;28.04;31,2;BCS1388054;3;15

File: 009645.txt
Serialnumber ; Date ; Time ; Action ; Date of Manufacture ; Manufacturer ; Battery Name ; Device-Chemistry ; Specification-Info ; Design-Capacity [mAh] ; Design-Voltage [mV] ; Battery Status ; Cycle Count ; SOC [%] ; Relativ SOC[%] ; Desired Voltage [mV]; Desired Current [mA]; Cell Voltage 1 [mV] ; Cell Voltage 2 [mV] ; Max_Error [%] ; Busvoltage[mV] ; Battery Temperature [°C] ; Charger Temperature [°C] ; Batterysystem ; Case ; PLace
009645;10.12.2019;15:28:41;Charge to 30% ;04.12.2018;FEY;;LION;49;14500;7200;224;49;93;100;8400;;4133;4134;1;13011;22.84;24.34;27,1;BCS1388054;2;16
009645;10.12.2019;20:48:37;Stop          ;04.12.2018;FEY;;LION;49;14500;7200;192;50;29;30;8400;3000;3560;3561;1;13007;33.84;33.44;33,2;BCS1388054;2;16
009645;11.12.2019;08:48:24;Fastcharge    ;04.12.2018;FEY;;LION;49;14500;7200;192;50;29;30;8400;3000;3568;3569;1;13009;26.24;27.74;31,9;BCS1388054;2;16
009645;11.12.2019;13:39:47;Stop          ;04.12.2018;FEY;;LION;49;14500;7200;224;50;94;100;8400;;4161;4162;1;13008;30.84;30.44;32,5;BCS1388054;2;16
009645;11.12.2019;15:46:18;Charge to 10% ;04.12.2018;FEY;;LION;49;14500;7200;224;50;96;100;8400;;4154;4154;1;13009;27.34;28.34;31,4;BCS1388054;2;16
009645;11.12.2019;22:49:04;Stop          ;04.12.2018;FEY;;LION;49;14500;7200;192;51;10;10;8400;3000;3352;3353;1;13007;34.84;34.04;33,6;BCS1388054;2;16
009645;12.12.2019;08:44:52;Normalcharge  ;04.12.2018;FEY;;LION;49;14500;7200;192;51;9;10;8400;3000;3362;3363;1;13009;26.44;27.94;31,9;BCS1388054;2;16
009645;12.12.2019;16:40:06;Stop          ;04.12.2018;FEY;;LION;49;14500;7200;224;51;96;100;8400;;4159;4160;1;13009;29.74;29.94;31,7;BCS1388054;2;16
009645;13.12.2019;10:47:50;Charge to 10% ;04.12.2018;FEY;;LION;49;14500;7200;224;51;96;100;8400;;4148;4149;1;13010;26.54;28.04;32,0;BCS1388054;2;16
009645;13.12.2019;15:42:08;Cycle         ;04.12.2018;FEY;;LION;49;14500;7200;192;52;35;36;8400;3000;3498;3550;1;13580;33.64;38.04;34,6;BCS1388054;2;16
009645;13.12.2019;15:42:08;Stop          ;04.12.2018;FEY;;LION;49;14500;7200;192;52;35;36;8400;3000;3498;3550;1;13580;33.64;38.04;34,6;BCS1388054;2;16
009645;14.12.2019;22:48:51;Stop          ;04.12.2018;FEY;;LION;49;14500;7200;224;53;93;99;8400;;4151;4153;1;13009;26.74;28.04;32,0;BCS1388054;2;16
009645;16.12.2019;07:43:06;Charge to 10% ;04.12.2018;FEY;;LION;49;14500;7200;224;53;94;100;8400;;4146;4147;1;13010;26.14;27.44;31,9;BCS1388054;2;16
009645;16.12.2019;14:37:54;Stop          ;04.12.2018;FEY;;LION;49;14500;7200;192;55;10;10;8400;3000;3364;3366;1;13009;33.34;32.34;32,4;BCS1388054;2;16
009645;16.12.2019;14:44:03;Charge to 90% ;04.12.2018;FEY;;LION;49;14500;7200;192;55;10;10;8400;3000;3365;3367;1;13010;32.94;31.54;31,9;BCS1388054;2;16
009645;16.12.2019;20:51:09;Stop          ;04.12.2018;FEY;;LION;49;14500;7200;192;55;84;90;8400;3000;4054;4056;1;13010;32.34;31.54;31,6;BCS1388054;2;16
009645;17.12.2019;08:37:41;Fastcharge    ;04.12.2018;FEY;;LION;49;14500;7200;192;55;84;90;8400;3000;4046;4047;1;13009;26.34;27.74;31,6;BCS1388054;2;16
009645;17.12.2019;10:30:36;Stop          ;04.12.2018;FEY;;LION;49;14500;7200;224;55;94;100;8400;;4161;4161;1;13009;28.14;29.34;31,5;BCS1388054;2;16
009645;17.12.2019;13:38:22;Charge to 10% ;04.12.2018;FEY;;LION;49;14500;7200;224;55;94;100;8400;;4150;4149;1;13010;26.64;27.84;30,8;BCS1388054;2;16
009645;17.12.2019;20:36:00;Stop          ;04.12.2018;FEY;;LION;49;14500;7200;192;56;10;10;8400;3000;3363;3363;1;13008;34.54;33.54;33,6;BCS1388054;2;16
009645;18.12.2019;08:31:17;Fastcharge    ;04.12.2018;FEY;;LION;49;14500;7200;192;56;10;10;8400;3000;3372;3373;1;13010;26.44;27.84;31,6;BCS1388054;2;16
009645;18.12.2019;14:28:27;Stop          ;04.12.2018;FEY;;LION;49;14500;7200;224;56;94;100;8400;;4161;4161;1;13010;30.84;30.34;32,0;BCS1388054;2;16
009645;19.12.2019;08:23:50;Charge to 60% ;04.12.2018;FEY;;LION;49;14500;7200;224;56;95;100;8400;;4150;4149;1;13009;26.34;27.64;31,5;BCS1388054;2;16
009645;19.12.2019;11:32:11;Stop          ;04.12.2018;FEY;;LION;49;14500;7200;192;56;57;60;8400;3000;3769;3767;1;13008;34.24;34.14;34,0;BCS1388054;2;16
009645;19.12.2019;12:16:37;Cycle         ;04.12.2018;FEY;;LION;49;14500;7200;192;56;57;60;8400;3000;3777;3775;1;13010;31.24;30.34;32,7;BCS1388054;2;16
009645;20.12.2019;17:35:47;Stop          ;04.12.2018;FEY;;LION;49;14500;7200;224;57;93;100;8400;;4152;4153;1;13010;26.74;27.74;31,1;BCS1388054;2;16
009645;06.01.2020;06:34:42;Charge to 60% ;04.12.2018;FEY;;LION;49;14500;7200;224;57;92;99;8400;;4123;4124;1;13010;26.34;27.64;31,9;BCS1388054;2;16
009645;06.01.2020;09:32:11;Stop          ;04.12.2018;FEY;;LION;49;14500;7200;192;57;57;60;8400;3000;3770;3769;1;13010;33.44;33.44;33,2;BCS1388054;2;16
009645;06.01.2020;09:50:30;Fastcharge    ;04.12.2018;FEY;;LION;49;14500;7200;192;57;57;60;8400;3000;3776;3776;1;13011;32.24;31.04;32,7;BCS1388054;2;16
009645;06.01.2020;13:08:34;Stop          ;04.12.2018;FEY;;LION;49;14500;7200;224;57;94;100;8400;;4160;4162;1;13012;30.24;29.94;31,6;BCS1388054;2;16