Folder: Battery_sort_V2/reader/backup_20210330/Batterieverzeichnis_new

Note: reader/backup_20210330/Batterieverzeichnis_new/009535.txt
009535;29.11.2020;04:42:29;Cycle         ;04.12.2018;FEY;;LION;49;14500;7200;16576;2;99;99;;;4162;4163;1;13008;23.34;18.74;27,5;BCS1388054;6;11
009535;12.01.2021;04:17:22;Charge to 90% ;04.12.2018;FEY;;LION;49;14500;7200;16576;2;97;97;;;4137;4137;1;13022;23.24;23.34;23,5;BCS1388054;2;6
009535;12.01.2021;04:54:21;Stop          ;04.12.2018;FEY;;LION;49;14500;7200;192;2;91;90;8400;3000;4058;4058;1;13013;27.44;28.94;31,9;BCS1388054;2;6
009535;12.01.2021;05:21:40;Cycle         ;04.12.2018;FEY;;LION;49;14500;7200;192;2;91;90;8400;3000;4067;4067;1;13014;27.44;27.04;30,6;BCS1388054;2;6
009535;13.01.2021;08:20:19;Stop          ;04.12.2018;FEY;;LION;49;14500;7200;224;3;98;100;8400;;4156;4154;1;13015;26.84;27.14;30,8;BCS1388054;2;6
009535;22.02.2021;17:31:46;Normalcharge  ;04.12.2018;FEY;;LION;49;14500;7200;192;4;63;64;8400;3000;3799;3797;1;12992;25.84;27.04;31,6;BCS1388054;1;1
009535;22.02.2021;23:06:28;Stop          ;04.12.2018;FEY;;LION;49;14500;7200;224;4;98;100;8400;;4154;4154;1;12992;26.64;27.84;30,6;BCS1388054;1;1
009535;22.02.2021;17:31:46;Normalcharge  ;04.12.2018;FEY;;LION;49;14500;7200;192;4;63;64;8400;3000;3799;3797;1;12992;25.84;27.04;31,6;BCS1388054;1;13
009535;22.02.2021;23:06:28;Stop          ;04.12.2018;FEY;;LION;49;14500;7200;224;4;98;100;8400;;4154;4154;1;12992;26.64;27.84;30,6;BCS1388054;1;13

Note: reader/backup_20210330/Batterieverzeichnis_new/009544.txt
Serialnumber ; Date ; Time ; Action ; Date of Manufacture ; Manufacturer ; Battery Name ; Device-Chemistry ; Specification-Info ; Design-Capacity [mAh] ; Design-Voltage [mV] ; Battery Status ; Cycle Count ; SOC [%] ; Relativ SOC[%] ; Desired Voltage [mV]; Desired Current [mA]; Cell Voltage 1 [mV] ; Cell Voltage 2 [mV] ; Max_Error [%] ; Busvoltage[mV] ; Battery Temperature [°C] ; Charger Temperature [°C] ; Batterysystem ; Case ; PLace
009544;07.02.2021;08:46:42;Normalcharge  ;04.12.2018;FEY;;LION;49;14500;7200;192;5;97;98;8400;;4120;4121;1;13004;23.24;27.04;29,2;BCS1388054;1;3
009544;07.02.2021;11:52:07;Stop          ;04.12.2018;FEY;;LION;49;14500;7200;192;5;97;98;8400;;4121;4121;1;13003;25.44;28.04;29,7;BCS1388054;1;3
009544;03.03.2021;08:17:21;Normalcharge  ;04.12.2018;FEY;;LION;49;14500;7200;192;5;92;93;8400;3000;4071;4071;1;13006;22.94;22.34;23,5;BCS1388054;3;11
009544;04.03.2021;07:53:40;Stop           ;04.12.2018;FEY;;LION;49;14500;7200;224;5;99;100;8400;;4147;4147;1;13001;26.14;26.14;31,5;BCS1388054;3;11
009544;03.03.2021;08:17:21;Normalcharge  ;04.12.2018;FEY;;LION;49;14500;7200;192;5;92;93;8400;3000;4071;4071;1;13006;22.94;22.34;23,5;BCS1388054;3;11
009544;04.03.2021;07:53:40;Stop           ;04.12.2018;FEY;;LION;49;14500;7200;224;5;99;100;8400;;4147;4147;1;13001;26.14;26.14;31,5;BCS1388054;1;16

Note: reader/backup_20210330/Batterieverzeichnis_new/009568.txt
009568;29.11.2020;04:36:38;Cycle         ;04.12.2018;FEY;;LION;49;14500;7200;16576;2;100;99;;;4167;4168;1;12997;23.24;23.74;27,9;BCS1388054;4;3
009568;12.01.2021;04:17:22;Charge to 90% ;04.12.2018;FEY;;LION;49;14500;7200;16576;2;99;98;;;4139;4140;1;13021;23.34;23.64;23,5;BCS1388054;2;9
009568;12.01.2021;04:54:21;Stop          ;04.12.2018;FEY;;LION;49;14500;7200;192;2;92;90;8400;3000;4040;4039;1;13013;26.84;33.44;31,9;BCS1388054;2;9
009568;12.01.2021;05:21:40;Cycle         ;04.12.2018;FEY;;LION;49;14500;7200;192;2;92;90;8400;3000;4064;4064;1;13016;27.24;28.24;30,6;BCS1388054;2;9
009568;13.01.2021;08:20:19;Stop          ;04.12.2018;FEY;;LION;49;14500;7200;224;4;98;100;8400;;4156;4157;1;13015;27.34;28.14;30,8;BCS1388054;2;9
009568;22.02.2021;17:31:46;Normalcharge  ;04.12.2018;FEY;;LION;49;14500;7200;192;4;56;57;8400;3000;3722;3723;1;13006;25.94;27.04;31,6;BCS1388054;1;6
009568;22.02.2021;23:06:28;Stop          ;04.12.2018;FEY;;LION;49;14500;7200;224;4;99;100;8400;;4153;4152;1;13006;26.44;27.04;30,6;BCS1388054;1;6
009568;22.02.2021;17:31:46;Normalcharge  ;04.12.2018;FEY;;LION;49;14500;7200;192;4;56;57;8400;3000;3722;3723;1;13006;25.94;27.04;31,6;BCS1388054;1;6
009568;22.02.2021;23:06:28;Stop          ;04.12.2018;FEY;;LION;49;14500;7200;224;4;99;100;8400;;4153;4152;1;13006;26.44;27.04;30,6;BCS1388054;2;8

Note: reader/backup_20210330/Batterieverzeichnis_new/009578.txt
009578;29.11.2020;04:36:38;Cycle         ;04.12.2018;FEY;;LION;49;14500;7200;192;3;98;98;8400;;4150;4151;1;12996;23.14;23.64;27,9;BCS1388054;4;2
009578;12.01.2021;04:17:40;Charge to 90% ;04.12.2018;FEY;;LION;49;14500;7200;192;3;96;97;8400;;4127;4128;1;13003;23.14;23.44;23,6;BCS1388054;6;1
009578;12.01.2021;05:00:55;Stop          ;04.12.2018;FEY;;LION;49;14500;7200;192;3;91;90;8400;3000;4060;4061;1;12998;27.44;29.24;31,2;BCS1388054;6;1
009578;12.01.2021;05:21:57;Cycle         ;04.12.2018;FEY;;LION;49;14500;7200;192;3;91;90;8400;3000;4063;4064;1;12999;27.14;28.24;30,4;BCS1388054;6;1
009578;13.01.2021;08:31:18;Stop          ;04.12.2018;FEY;;LION;49;14500;7200;224;4;97;100;8400;;4155;4156;1;13000;26.74;28.14;31,1;BCS1388054;6;1
009578;21.02.2021;13:45:29;Normalcharge  ;04.12.2018;FEY;;LION;49;14500;7200;192;5;83;85;8400;3000;3981;3981;1;13007;23.14;22.74;27,8;BCS1388054;6;12
009578;13.01.2021;08:31:18;Stop          ;04.12.2018;FEY;;LION;49;14500;7200;224;4;97;100;8400;;4155;4156;1;13000;26.74;28.14;31,1;BCS1388054;6;1
009578;21.02.2021;13:45:29;Normalcharge  ;04.12.2018;FEY;;LION;49;14500;7200;192;5;83;85;8400;3000;3981;3981;1;13007;23.14;22.74;27,8;BCS1388054;2;18

Note: reader/backup_20210330/Batterieverzeichnis_new/009677.txt
Serialnumber ; Date ; Time ; Action ; Date of Manufacture ; Manufacturer ; Battery Name ; Device-Chemistry ; Specification-Info ; Design-Capacity [mAh] ; Design-Voltage [mV] ; Battery Status ; Cycle Count ; SOC [%] ; Relativ SOC[%] ; Desired Voltage [mV]; Desired Current [mA]; Cell Voltage 1 [mV] ; Cell Voltage 2 [mV] ; Max_Error [%] ; Busvoltage[mV] ; Battery Temperature [°C] ; Charger Temperature [°C] ; Batterysystem ; Case ; PLace
009677;01.12.2020;07:38:36;Cycle         ;30.11.2018;FEY;;LION;49;14500;7200;192;3;18;19;8400;3000;3443;3441;1;13007;24.94;26.04;28,8;BCS1388054;2;2
009677;02.12.2020;16:21:01;Stop          ;30.11.2018;FEY;;LION;49;14500;7200;224;4;98;100;8400;;4156;4157;1;13000;26.14;28.94;29,3;BCS1388054;2;2
009677;03.03.2021;08:17:46;Normalcharge  ;30.11.2018;FEY;;LION;49;14500;7200;2768;5;;;8400;3000;3062;3051;1;13035;22.64;23.04;23,6;BCS1388054;7;16
009677;03.03.2021;10:54:05;Stop          ;30.11.2018;FEY;;LION;49;14500;7200;128;5;31;32;8400;3000;3680;3626;1;12696;30.14;33.74;31,4;BCS1388054;7;16

Note: reader/backup_20210330/Batterieverzeichnis_new/009683.txt
Serialnumber ; Date ; Time ; Action ; Date of Manufacture ; Manufacturer ; Battery Name ; Device-Chemistry ; Specification-Info ; Design-Capacity [mAh] ; Design-Voltage [mV] ; Battery Status ; Cycle Count ; SOC [%] ; Relativ SOC[%] ; Desired Voltage [mV]; Desired Current [mA]; Cell Voltage 1 [mV] ; Cell Voltage 2 [mV] ; Max_Error [%] ; Busvoltage[mV] ; Battery Temperature [°C] ; Charger Temperature [°C] ; Batterysystem ; Case ; PLace
009683;07.12.2020;04:14:21;Cycle         ;04.12.2018;FEY;;LION;49;14500;7200;224;3;100;99;8400;;4144;4146;1;12992;25.74;27.34;30,3;BCS1388054;2;13
009683;08.12.2020;16:19:44;Stop          ;04.12.2018;FEY;;LION;49;14500;7200;224;4;98;100;8400;;4151;4153;1;12991;27.84;29.14;31,9;BCS1388054;2;13
009683;03.03.2021;08:17:40;Normalcharge  ;04.12.2018;FEY;;LION;49;14500;7200;192;5;69;70;8400;3000;3853;3854;1;13020;23.24;24.14;23,6;BCS1388054;6;15
009683;03.03.2021;11:56:52;Stop          ;04.12.2018;FEY;;LION;49;14500;7200;224;5;99;100;8400;;4158;4161;1;13012;28.94;30.34;31,7;BCS1388054;6;15

File: 001018.txt
Serialnumber ; Date ; Time ; Action ; Date of Manufacture ; Manufacturer ; Battery Name ; Device-Chemistry ; Specification-Info ; Design-Capacity [mAh] ; Design-Voltage [mV] ; Battery Status ; Cycle Count ; SOC [%] ; Relativ SOC[%] ; Desired Voltage [mV]; Desired Current [mA]; Cell Voltage 1 [mV] ; Cell Voltage 2 [mV] ; Max_Error [%] ; Busvoltage[mV] ; Battery Temperature [°C] ; Charger Temperature [°C] ; Batterysystem ; Case ; PLace
001018;10.12.2019;15:29:15;Charge to 30% ;28.11.2017;FEY;;LION;49;14500;7200;224;35;90;99;8400;;4121;4119;1;13023;22.24;24.14;27,1;BCS1388054;7;12
001018;10.12.2019;20:46:56;Stop          ;28.11.2017;FEY;;LION;49;14500;7200;192;36;28;30;8400;3000;3558;3556;1;13022;30.24;30.24;33,5;BCS1388054;7;12
001018;11.12.2019;08:49:12;Fastcharge    ;28.11.2017;FEY;;LION;49;14500;7200;192;36;28;30;8400;3000;3564;3562;1;13023;25.44;27.04;31,9;BCS1388054;7;12
001018;11.12.2019;13:38:42;Stop          ;28.11.2017;FEY;;LION;49;14500;7200;224;36;92;100;8400;;4160;4160;1;13022;27.54;28.34;32,7;BCS1388054;7;12
001018;11.12.2019;15:46:56;Charge to 10% ;28.11.2017;FEY;;LION;49;14500;7200;224;36;93;100;8400;;4153;4153;1;13023;25.94;26.94;31,2;BCS1388054;7;12
001018;11.12.2019;22:51:50;Stop          ;28.11.2017;FEY;;LION;49;14500;7200;192;37;10;10;8400;3000;3359;3358;1;13022;30.34;30.04;33,0;BCS1388054;7;12
001018;12.12.2019;08:45:27;Normalcharge  ;28.11.2017;FEY;;LION;49;14500;7200;192;37;9;10;8400;3000;3366;3364;1;13023;25.64;26.84;31,7;BCS1388054;7;12
001018;12.12.2019;16:41:08;Stop          ;28.11.2017;FEY;;LION;49;14500;7200;224;37;93;100;8400;;4157;4157;1;13022;27.24;27.74;31,6;BCS1388054;7;12
001018;13.12.2019;10:48:13;Charge to 10% ;28.11.2017;FEY;;LION;49;14500;7200;224;37;93;100;8400;;4148;4148;1;13023;25.64;27.24;32,0;BCS1388054;7;12
001018;13.12.2019;13:48:48;Stop          ;28.11.2017;FEY;;LION;49;14500;7200;192;38;55;60;8400;3000;3663;3715;1;13535;31.84;34.84;36,8;BCS1388054;7;12
001018;16.12.2019;07:43:34;Charge to 10% ;28.11.2017;FEY;;LION;49;14500;7200;192;38;56;61;8400;3000;3764;3767;1;13039;22.44;26.44;31,7;BCS1388054;7;14
001018;16.12.2019;11:52:34;Stop          ;28.11.2017;FEY;;LION;49;14500;7200;192;38;10;10;8400;3000;3359;3358;1;13038;32.14;32.04;34,7;BCS1388054;7;14
001018;16.12.2019;14:44:25;Charge to 90% ;28.11.2017;FEY;;LION;49;14500;7200;192;38;9;10;8400;3000;3363;3362;1;13038;28.54;29.24;31,7;BCS1388054;7;14
001018;16.12.2019;20:53:59;Stop          ;28.11.2017;FEY;;LION;49;14500;7200;192;38;82;90;8400;3000;4033;4034;1;13037;31.04;30.44;32,1;BCS1388054;7;14
001018;17.12.2019;08:38:02;Fastcharge    ;28.11.2017;FEY;;LION;49;14500;7200;192;38;81;89;8400;3000;4027;4028;1;13037;25.74;27.34;31,6;BCS1388054;7;14
001018;17.12.2019;10:36:25;Stop          ;28.11.2017;FEY;;LION;49;14500;7200;224;38;92;100;8400;;4160;4162;1;13037;27.74;28.94;31,5;BCS1388054;7;14
001018;17.12.2019;13:38:44;Charge to 10% ;28.11.2017;FEY;;LION;49;14500;7200;224;38;92;100;8400;;4151;4153;1;13038;26.14;27.44;30,8;BCS1388054;7;14
001018;17.12.2019;20:42:03;Stop          ;28.11.2017;FEY;;LION;49;14500;7200;192;39;10;10;8400;3000;3361;3361;1;13038;33.14;31.84;32,6;BCS1388054;7;14
001018;18.12.2019;08:31:43;Fastcharge    ;28.11.2017;FEY;;LION;49;14500;7200;192;39;9;10;8400;3000;3368;3368;1;13037;25.84;27.54;31,6;BCS1388054;7;14
001018;18.12.2019;14:30:48;Stop          ;28.11.2017;FEY;;LION;49;14500;7200;224;39;92;100;8400;;4160;4164;1;13037;29.94;29.44;31,6;BCS1388054;7;14
001018;19.12.2019;08:24:17;Charge to 60% ;28.11.2017;FEY;;LION;49;14500;7200;224;39;93;100;8400;;4150;4153;1;13037;25.84;27.34;31,6;BCS1388054;7;14
001018;19.12.2019;11:28:26;Stop          ;28.11.2017;FEY;;LION;49;14500;7200;192;40;56;60;8400;3000;3766;3771;1;13036;33.34;34.34;35,1;BCS1388054;7;14
001018;19.12.2019;12:16:57;Cycle         ;28.11.2017;FEY;;LION;49;14500;7200;192;40;56;60;8400;3000;3774;3780;1;13037;30.14;29.44;32,7;BCS1388054;7;14
001018;20.12.2019;17:22:28;Stop          ;28.11.2017;FEY;;LION;49;14500;7200;224;41;92;100;8400;;4152;4152;1;13037;26.24;27.64;31,9;BCS1388054;7;14
001018;06.01.2020;06:35:02;Charge to 60% ;28.11.2017;FEY;;LION;49;14500;7200;192;41;90;98;8400;;4122;4122;1;13039;25.84;27.54;31,9;BCS1388054;7;14
001018;06.01.2020;09:29:52;Stop          ;28.11.2017;FEY;;LION;49;14500;7200;192;42;55;60;8400;3000;3762;3765;1;13038;32.54;33.44;34,0;BCS1388054;7;14
001018;06.01.2020;09:50:50;Fastcharge    ;28.11.2017;FEY;;LION;49;14500;7200;192;42;55;60;8400;3000;3768;3771;1;13038;31.14;30.04;32,7;BCS1388054;7;14
001018;06.01.2020;13:05:11;Stop          ;28.11.2017;FEY;;LION;49;14500;7200;224;42;92;100;8400;;4159;4159;1;13038;29.44;29.64;32,4;BCS1388054;7;14

File: 009508.txt
Serialnumber ; Date ; Time ; Action ; Date of Manufacture ; Manufacturer ; Battery Name ; Device-Chemistry ; Specification-Info ; Design-Capacity [mAh] ; Design-Voltage [mV] ; Battery Status ; Cycle Count ; SOC [%] ; Relativ SOC[%] ; Desired Voltage [mV]; Desired Current [mA]; Cell Voltage 1 [mV] ; Cell Voltage 2 [mV] ; Max_Error [%] ; Busvoltage[mV] ; Battery Temperature [°C] ; Charger Temperature [°C] ; Batterysystem ; Case ; PLace
009508;30.11.2020;09:42:55;Stop          ;03.12.2018;FEY;;LION;49;14500;7200;16576;2;99;99;;;4162;4160;1;13019;27.54;29.04;31,7;BCS1388054;7;17
009508;12.01.2021;04:17:22;Charge to 90% ;03.12.2018;FEY;;LION;49;14500;7200;16576;2;97;98;;;4138;4137;1;13011;23.24;24.34;23,5;BCS1388054;2;3
009508;12.01.2021;04:54:21;Stop          ;03.12.2018;FEY;;LION;49;14500;7200;192;2;90;90;8400;3000;4055;4054;1;13004;26.84;32.54;31,9;BCS1388054;2;3
009508;12.01.2021;05:21:40;Cycle         ;03.12.2018;FEY;;LION;49;14500;7200;192;2;90;90;8400;3000;4066;4065;1;13006;27.14;29.44;30,6;BCS1388054;2;3
009508;13.01.2021;08:20:19;Stop          ;03.12.2018;FEY;;LION;49;14500;7200;224;3;98;100;8400;;4156;4158;1;13006;27.14;29.24;30,8;BCS1388054;2;3
009508;21.02.2021;13:44:56;Normalcharge  ;03.12.2018;FEY;;LION;49;14500;7200;192;4;40;41;8400;3000;3605;3606;1;13009;22.94;23.24;27,7;BCS1388054;5;12
009508;21.02.2021;19:31:36;Stop          ;03.12.2018;FEY;;LION;49;14500;7200;224;4;98;100;8400;;4160;4160;1;13005;26.94;27.04;30,6;BCS1388054;5;12
009508;21.02.2021;13:44:56;Normalcharge  ;03.12.2018;FEY;;LION;49;14500;7200;192;4;40;41;8400;3000;3605;3606;1;13009;22.94;23.24;27,7;BCS1388054;5;12
009508;21.02.2021;19:31:36;Stop          ;03.12.2018;FEY;;LION;49;14500;7200;224;4;98;100;8400;;4160;4160;1;13005;26.94;27.04;30,6;BCS1388054;1;1

File: 009514.txt
Serialnumber ; Date ; Time ; Action ; Date of Manufacture ; Manufacturer ; Battery Name ; Device-Chemistry ; Specification-Info ; Design-Capacity [mAh] ; Design-Voltage [mV] ; Battery Status ; Cycle Count ; SOC [%] ; Relativ SOC[%] ; Desired Voltage [mV]; Desired Current [mA]; Cell Voltage 1 [mV] ; Cell Voltage 2 [mV] ; Max_Error [%] ; Busvoltage[mV] ; Battery Temperature [°C] ; Charger Temperature [°C] ; Batterysystem ; Case ; PLace
009514;12.01.2021;04:17:22;Charge to 90% ;04.12.2018;FEY;;LION;49;14500;7200;16576;2;97;97;;;4136;4137;1;13006;23.14;24.04;23,5;BCS1388054;2;4
009514;12.01.2021;04:54:21;Stop          ;04.12.2018;FEY;;LION;49;14500;7200;192;2;90;90;8400;3000;4056;4055;1;12996;27.04;30.64;31,9;BCS1388054;2;4
009514;12.01.2021;05:21:40;Cycle         ;04.12.2018;FEY;;LION;49;14500;7200;192;2;90;90;8400;3000;4065;4065;1;12998;27.24;28.54;30,6;BCS1388054;2;4
009514;13.01.2021;08:20:19;Stop          ;04.12.2018;FEY;;LION;49;14500;7200;224;3;96;100;8400;;4156;4158;1;13000;27.04;28.34;30,8;BCS1388054;2;4
009514;21.02.2021;13:43:32;Normalcharge  ;04.12.2018;FEY;;LION;49;14500;7200;192;3;64;66;8400;3000;3811;3813;1;12987;23.34;25.04;27,5;BCS1388054;2;18
009514;21.02.2021;19:27:00;Stop          ;04.12.2018;FEY;;LION;49;14500;7200;224;3;97;100;8400;;4154;4155;1;12986;26.64;28.14;31,1;BCS1388054;2;18
009514;21.02.2021;13:43:32;Normalcharge  ;04.12.2018;FEY;;LION;49;14500;7200;192;3;64;66;8400;3000;3811;3813;1;12987;23.34;25.04;27,5;BCS1388054;2;18
009514;21.02.2021;19:27:00;Stop          ;04.12.2018;FEY;;LION;49;14500;7200;224;3;97;100;8400;;4154;4155;1;12986;26.64;28.14;31,1;BCS1388054;1;7

File: 009536.txt
Serialnumber ; Date ; Time ; Action ; Date of Manufacture ; Manufacturer ; Battery Name ; Device-Chemistry ; Specification-Info ; Design-Capacity [mAh] ; Design-Voltage [mV] ; Battery Status ; Cycle Count ; SOC [%] ; Relativ SOC[%] ; Desired Voltage [mV]; Desired Current [mA]; Cell Voltage 1 [mV] ; Cell Voltage 2 [mV] ; Max_Error [%] ; Busvoltage[mV] ; Battery Temperature [°C] ; Charger Temperature [°C] ; Batterysystem ; Case ; PLace
009536;07.12.2020;04:14:40;Cycle         ;04.12.2018;FEY;;LION;49;14500;7200;192;1;96;96;8400;;4100;4099;1;13017;25.94;27.54;30,3;BCS1388054;7;7
009536;08.12.2020;16:20:20;Stop          ;04.12.2018;FEY;;LION;49;14500;7200;192;1;97;96;8400;;4099;4098;1;13016;27.94;28.94;31,9;BCS1388054;7;7
009536;12.01.2021;04:17:36;Charge to 90% ;04.12.2018;FEY;;LION;49;14500;7200;192;1;78;78;8400;3000;3916;3916;1;13016;23.34;23.64;23,6;BCS1388054;5;8
009536;12.01.2021;05:15:37;Stop          ;04.12.2018;FEY;;LION;49;14500;7200;128;1;90;90;8400;3000;4141;4093;1;13011;28.44;32.74;31,6;BCS1388054;5;8
009536;12.01.2021;05:21:53;Cycle         ;04.12.2018;FEY;;LION;49;14500;7200;192;1;90;90;8400;3000;4045;4045;1;13011;28.34;28.44;30,6;BCS1388054;5;8
009536;13.01.2021;08:31:10;Stop          ;04.12.2018;FEY;;LION;49;14500;7200;224;3;98;100;8400;;4157;4157;1;13012;27.54;28.34;31,1;BCS1388054;5;8
009536;22.02.2021;17:31:46;Normalcharge  ;04.12.2018;FEY;;LION;49;14500;7200;192;3;62;64;8400;3000;3791;3791;1;12991;25.94;26.14;31,6;BCS1388054;1;5
009536;22.02.2021;23:06:28;Stop          ;04.12.2018;FEY;;LION;49;14500;7200;224;3;99;100;8400;;4156;4155;1;12993;26.64;26.54;30,6;BCS1388054;1;5
009536;22.02.2021;17:31:46;Normalcharge  ;04.12.2018;FEY;;LION;49;14500;7200;192;3;62;64;8400;3000;3791;3791;1;12991;25.94;26.14;31,6;BCS1388054;1;5
009536;22.02.2021;23:06:28;Stop          ;04.12.2018;FEY;;LION;49;14500;7200;224;3;99;100;8400;;4156;4155;1;12993;26.64;26.54;30,6;BCS1388054;1;14

File: 009556.txt
Serialnumber ; Date ; Time ; Action ; Date of Manufacture ; Manufacturer ; Battery Name ; Device-Chemistry ; Specification-Info ; Design-Capacity [mAh] ; Design-Voltage [mV] ; Battery Status ; Cycle Count ; SOC [%] ; Relativ SOC[%] ; Desired Voltage [mV]; Desired Current [mA]; Cell Voltage 1 [mV] ; Cell Voltage 2 [mV] ; Max_Error [%] ; Busvoltage[mV] ; Battery Temperature [°C] ; Charger Temperature [°C] ; Batterysystem ; Case ; PLace
009556;07.12.2020;04:14:28;Cycle         ;04.12.2018;FEY;;LION;49;14500;7200;16576;2;96;98;;;4142;4147;1;12993;25.84;28.54;30,3;BCS1388054;4;3
009556;08.12.2020;16:19:56;Stop          ;04.12.2018;FEY;;LION;49;14500;7200;16576;2;96;98;;;4140;4144;1;12993;28.04;30.04;31,9;BCS1388054;4;3
009556;12.01.2021;04:17:40;Charge to 90% ;04.12.2018;FEY;;LION;49;14500;7200;16576;2;95;97;;;4126;4130;1;13011;23.24;23.04;23,6;BCS1388054;6;4
009556;12.01.2021;05:00:55;Stop          ;04.12.2018;FEY;;LION;49;14500;7200;192;3;88;90;8400;3000;4062;4064;1;13006;27.24;28.24;31,2;BCS1388054;6;4
009556;12.01.2021;05:21:57;Cycle         ;04.12.2018;FEY;;LION;49;14500;7200;192;3;88;90;8400;3000;4065;4067;1;13007;27.24;27.24;30,4;BCS1388054;6;4
009556;13.01.2021;08:31:18;Stop          ;04.12.2018;FEY;;LION;49;14500;7200;224;4;97;100;8400;;4156;4158;1;13007;26.94;27.34;31,1;BCS1388054;6;4
009556;21.02.2021;13:44:56;Normalcharge  ;04.12.2018;FEY;;LION;49;14500;7200;192;4;51;52;8400;3000;3674;3674;1;13014;23.24;23.04;27,7;BCS1388054;5;4
009556;21.02.2021;19:31:36;Stop          ;04.12.2018;FEY;;LION;49;14500;7200;224;4;98;100;8400;;4155;4156;1;13009;27.14;27.84;30,6;BCS1388054;5;4
009556;21.02.2021;13:44:56;Normalcharge  ;04.12.2018;FEY;;LION;49;14500;7200;192;4;51;52;8400;3000;3674;3674;1;13014;23.24;23.04;27,7;BCS1388054;5;4
009556;21.02.2021;19:31:36;Stop          ;04.12.2018;FEY;;LION;49;14500;7200;224;4;98;100;8400;;4155;4156;1;13009;27.14;27.84;30,6;BCS1388054;2;17

File: 009604.txt
Serialnumber ; Date ; Time ; Action ; Date of Manufacture ; Manufacturer ; Battery Name ; Device-Chemistry ; Specification-Info ; Design-Capacity [mAh] ; Design-Voltage [mV] ; Battery Status ; Cycle Count ; SOC [%] ; Relativ SOC[%] ; Desired Voltage [mV]; Desired Current [mA]; Cell Voltage 1 [mV] ; Cell Voltage 2 [mV] ; Max_Error [%] ; Busvoltage[mV] ; Battery Temperature [°C] ; Charger Temperature [°C] ; Batterysystem ; Case ; PLace
009604;10.12.2019;15:28:33;Charge to 30% ;04.12.2018;FEY;;LION;49;14500;7200;192;48;91;98;8400;;4106;4107;1;13012;23.54;25.94;27,1;BCS1388054;1;7
009604;10.12.2019;20:42:16;Stop          ;04.12.2018;FEY;;LION;49;14500;7200;192;49;29;30;8400;3000;3562;3562;1;13011;32.64;33.44;34,1;BCS1388054;1;7
009604;11.12.2019;08:48:18;Fastcharge    ;04.12.2018;FEY;;LION;49;14500;7200;192;49;29;30;8400;3000;3568;3569;1;13012;26.24;27.84;31,9;BCS1388054;1;7
009604;11.12.2019;13:40:21;Stop          ;04.12.2018;FEY;;LION;49;14500;7200;224;49;94;100;8400;;4160;4160;1;13012;29.74;30.04;32,4;BCS1388054;1;7
009604;11.12.2019;15:45:57;Charge to 30% ;04.12.2018;FEY;;LION;49;14500;7200;224;49;95;99;8400;;4152;4153;1;13012;27.04;28.24;31,5;BCS1388054;1;7
009604;11.12.2019;15:46:00;Stop          ;04.12.2018;FEY;;LION;49;14500;7200;224;49;95;99;8400;;4152;4153;1;13013;27.04;28.14;31,5;BCS1388054;1;7
009604;11.12.2019;15:46:13;Charge to 10% ;04.12.2018;FEY;;LION;49;14500;7200;224;49;95;99;8400;;4152;4153;1;13013;27.04;28.24;31,5;BCS1388054;1;7
009604;11.12.2019;22:50:20;Stop          ;04.12.2018;FEY;;LION;49;14500;7200;192;50;10;10;8400;3000;3354;3354;1;13012;33.44;32.94;33,4;BCS1388054;1;7
009604;12.12.2019;08:44:40;Normalcharge  ;04.12.2018;FEY;;LION;49;14500;7200;192;50;9;10;8400;3000;3362;3363;1;13012;26.44;28.04;31,9;BCS1388054;1;7
009604;12.12.2019;16:39:22;Stop          ;04.12.2018;FEY;;LION;49;14500;7200;224;50;95;100;8400;;4160;4162;1;13012;28.94;29.64;31,7;BCS1388054;1;7
009604;13.12.2019;10:47:47;Charge to 10% ;04.12.2018;FEY;;LION;49;14500;7200;224;50;95;100;8400;;4148;4148;1;13013;26.44;28.14;32,0;BCS1388054;1;7
009604;13.12.2019;15:41:58;Stop          ;04.12.2018;FEY;;LION;49;14500;7200;192;51;34;36;8400;3000;3496;3548;1;13641;32.54;38.44;34,6;BCS1388054;1;7
009604;13.12.2019;15:42:01;Cycle         ;04.12.2018;FEY;;LION;49;14500;7200;192;51;34;36;8400;3000;3496;3548;1;13641;32.54;38.44;34,6;BCS1388054;1;7
009604;14.12.2019;22:41:25;Stop          ;04.12.2018;FEY;;LION;49;14500;7200;224;52;93;99;8400;;4151;4152;1;13013;26.54;28.04;31,9;BCS1388054;1;7
009604;16.12.2019;07:43:03;Charge to 10% ;04.12.2018;FEY;;LION;49;14500;7200;224;52;93;100;8400;;4145;4146;1;13012;26.24;27.54;31,9;BCS1388054;1;7
009604;16.12.2019;14:36:13;Stop          ;04.12.2018;FEY;;LION;49;14500;7200;192;53;10;10;8400;3000;3366;3367;1;13011;32.24;32.04;32,4;BCS1388054;1;7
009604;16.12.2019;14:44:00;Charge to 90% ;04.12.2018;FEY;;LION;49;14500;7200;192;53;10;10;8400;3000;3367;3368;1;13013;31.74;30.84;31,7;BCS1388054;1;7
009604;16.12.2019;20:50:03;Stop          ;04.12.2018;FEY;;LION;49;14500;7200;192;53;84;90;8400;3000;4053;4054;1;13014;31.34;31.24;31,7;BCS1388054;1;7
009604;17.12.2019;08:37:36;Fastcharge    ;04.12.2018;FEY;;LION;49;14500;7200;192;53;84;90;8400;3000;4044;4045;1;13013;26.24;27.84;31,6;BCS1388054;1;7
009604;17.12.2019;10:31:11;Stop          ;04.12.2018;FEY;;LION;49;14500;7200;224;53;94;100;8400;;4159;4159;1;13012;27.84;28.94;31,4;BCS1388054;1;7
009604;17.12.2019;13:38:19;Charge to 10% ;04.12.2018;FEY;;LION;49;14500;7200;224;53;94;100;8400;;4148;4148;1;13012;26.54;27.74;30,8;BCS1388054;1;7
009604;17.12.2019;20:33:50;Stop          ;04.12.2018;FEY;;LION;49;14500;7200;192;54;10;10;8400;3000;3364;3364;1;13012;33.44;33.14;34,2;BCS1388054;1;7
009604;18.12.2019;08:31:14;Fastcharge    ;04.12.2018;FEY;;LION;49;14500;7200;192;54;10;10;8400;3000;3372;3373;1;13013;26.34;27.84;31,6;BCS1388054;1;7
009604;18.12.2019;14:28:33;Stop          ;04.12.2018;FEY;;LION;49;14500;7200;224;54;94;100;8400;;4159;4158;1;13012;29.74;29.94;31,9;BCS1388054;1;7
009604;19.12.2019;08:23:45;Charge to 60% ;04.12.2018;FEY;;LION;49;14500;7200;224;54;95;100;8400;;4148;4146;1;13012;26.24;27.74;31,5;BCS1388054;1;7
009604;19.12.2019;11:29:32;Stop          ;04.12.2018;FEY;;LION;49;14500;7200;192;55;57;60;8400;3000;3768;3766;1;13011;33.24;34.44;34,9;BCS1388054;1;7
009604;19.12.2019;12:16:33;Cycle         ;04.12.2018;FEY;;LION;49;14500;7200;192;55;57;60;8400;3000;3777;3776;1;13013;30.04;29.74;32,7;BCS1388054;1;7
009604;20.12.2019;17:26:19;Stop          ;04.12.2018;FEY;;LION;49;14500;7200;224;56;93;100;8400;;4150;4152;1;13013;26.54;27.84;31,2;BCS1388054;1;7
009604;06.01.2020;06:34:38;Charge to 60% ;04.12.2018;FEY;;LION;49;14500;7200;224;56;92;99;8400;;4121;4122;1;13013;26.34;27.84;31,9;BCS1388054;1;7
009604;06.01.2020;09:30:29;Stop          ;04.12.2018;FEY;;LION;49;14500;7200;192;56;56;60;8400;3000;3769;3770;1;13012;32.44;33.24;33,9;BCS1388054;1;7
009604;06.01.2020;09:50:27;Fastcharge    ;04.12.2018;FEY;;LION;49;14500;7200;192;56;56;60;8400;3000;3776;3778;1;13014;31.04;30.34;32,6;BCS1388054;1;7
009604;06.01.2020;13:07:36;Stop          ;04.12.2018;FEY;;LION;49;14500;7200;224;56;93;100;8400;;4159;4160;1;13013;29.24;29.74;31,7;BCS1388054;1;7