Folder: Battery_sort_V2/reader/backup_20210330/Batterieverzeichnis_new (part 2)

File: 009607.txt
Serialnumber ; Date ; Time ; Action ; Date of Manufacture ; Manufacturer ; Battery Name ; Device-Chemistry ; Specification-Info ; Design-Capacity [mAh] ; Design-Voltage [mV] ; Battery Status ; Cycle Count ; SOC [%] ; Relativ SOC[%] ; Desired Voltage [mV]; Desired Current [mA]; Cell Voltage 1 [mV] ; Cell Voltage 2 [mV] ; Max_Error [%] ; Busvoltage[mV] ; Battery Temperature [°C] ; Charger Temperature [°C] ; Batterysystem ; Case ; PLace
009607;10.12.2019;15:29:01;Charge to 30% ;03.12.2018;FEY;;LION;49;14500;7200;224;51;93;100;8400;;4130;4129;1;13009;22.44;23.94;27,1;BCS1388054;5;1
009607;10.12.2019;20:48:54;Stop          ;03.12.2018;FEY;;LION;49;14500;7200;192;52;29;30;8400;3000;3561;3560;1;13008;32.74;32.84;33,1;BCS1388054;5;1
009607;11.12.2019;08:48:53;Fastcharge    ;03.12.2018;FEY;;LION;49;14500;7200;192;52;29;30;8400;3000;3570;3569;1;13007;26.24;28.04;31,9;BCS1388054;5;1
009607;11.12.2019;13:40:11;Stop          ;03.12.2018;FEY;;LION;49;14500;7200;224;52;94;100;8400;;4162;4162;1;13007;29.34;30.24;32,4;BCS1388054;5;1
009607;11.12.2019;15:46:40;Charge to 10% ;03.12.2018;FEY;;LION;49;14500;7200;224;52;96;100;8400;;4153;4153;1;13007;26.94;28.24;31,4;BCS1388054;5;1
009607;11.12.2019;22:49:07;Stop          ;03.12.2018;FEY;;LION;49;14500;7200;192;53;10;10;8400;3000;3350;3350;1;13007;33.54;33.64;33,5;BCS1388054;5;1
009607;12.12.2019;08:45:10;Normalcharge  ;03.12.2018;FEY;;LION;49;14500;7200;192;53;9;10;8400;3000;3363;3363;1;13006;26.44;28.24;31,7;BCS1388054;5;1
009607;12.12.2019;16:41:20;Stop          ;03.12.2018;FEY;;LION;49;14500;7200;224;53;96;100;8400;;4163;4163;1;13006;28.74;29.64;31,6;BCS1388054;5;1
009607;13.12.2019;10:48:05;Charge to 10% ;03.12.2018;FEY;;LION;49;14500;7200;224;53;96;100;8400;;4149;4148;1;13007;26.44;28.24;32,0;BCS1388054;5;1
009607;13.12.2019;15:40:55;Stop          ;03.12.2018;FEY;;LION;49;14500;7200;192;54;35;37;8400;3000;3505;3555;1;13500;32.14;37.34;34,6;BCS1388054;5;1
009607;13.12.2019;15:41:42;Cycle         ;03.12.2018;FEY;;LION;49;14500;7200;192;54;35;37;8400;3000;3585;3585;1;13006;32.14;35.24;34,5;BCS1388054;5;1
009607;14.12.2019;22:39:35;Stop          ;03.12.2018;FEY;;LION;49;14500;7200;224;55;92;99;8400;;4151;4151;1;13007;26.44;28.14;31,7;BCS1388054;5;1
009607;16.12.2019;07:43:20;Charge to 10% ;03.12.2018;FEY;;LION;49;14500;7200;224;55;93;100;8400;;4145;4145;1;13007;26.24;27.34;31,9;BCS1388054;5;1
009607;16.12.2019;14:34:29;Stop          ;03.12.2018;FEY;;LION;49;14500;7200;192;56;10;10;8400;3000;3363;3363;1;13008;31.94;32.14;32,5;BCS1388054;5;1
009607;16.12.2019;14:44:17;Charge to 90% ;03.12.2018;FEY;;LION;49;14500;7200;192;56;10;10;8400;3000;3367;3367;1;13007;31.14;30.44;31,9;BCS1388054;5;1
009607;16.12.2019;20:48:55;Stop          ;03.12.2018;FEY;;LION;49;14500;7200;192;56;84;90;8400;3000;4064;4064;1;13007;31.24;32.04;31,9;BCS1388054;5;1
009607;17.12.2019;08:37:53;Fastcharge    ;03.12.2018;FEY;;LION;49;14500;7200;192;56;84;90;8400;3000;4048;4049;1;13007;26.34;27.94;31,6;BCS1388054;5;1
009607;17.12.2019;10:33:46;Stop          ;03.12.2018;FEY;;LION;49;14500;7200;224;56;95;100;8400;;4160;4161;1;13007;27.84;28.84;31,1;BCS1388054;5;1
009607;17.12.2019;10:33:46;Stop          ;03.12.2018;FEY;;LION;49;14500;7200;224;56;95;100;8400;;4160;4161;1;13007;27.84;28.84;31,1;BCS1388054;5;1
009607;17.12.2019;13:38:36;Charge to 10% ;03.12.2018;FEY;;LION;49;14500;7200;224;56;95;100;8400;;4150;4151;1;13007;26.64;27.84;30,8;BCS1388054;5;1
009607;17.12.2019;20:33:18;Stop          ;03.12.2018;FEY;;LION;49;14500;7200;192;57;10;10;8400;3000;3364;3364;1;13007;33.54;33.54;34,5;BCS1388054;5;1
009607;18.12.2019;08:31:30;Fastcharge    ;03.12.2018;FEY;;LION;49;14500;7200;192;57;10;10;8400;3000;3375;3375;1;13006;26.44;28.04;31,6;BCS1388054;5;1
009607;18.12.2019;14:29:27;Stop          ;03.12.2018;FEY;;LION;49;14500;7200;224;57;95;100;8400;;4161;4163;1;13009;29.34;29.84;31,7;BCS1388054;5;1
009607;19.12.2019;08:24:02;Charge to 60% ;03.12.2018;FEY;;LION;49;14500;7200;224;57;95;100;8400;;4148;4150;1;13007;26.34;27.94;31,5;BCS1388054;5;1
009607;19.12.2019;11:31:09;Stop          ;03.12.2018;FEY;;LION;49;14500;7200;192;58;58;60;8400;3000;3768;3770;1;13007;33.44;33.84;34,4;BCS1388054;5;1
009607;19.12.2019;12:16:49;Cycle         ;03.12.2018;FEY;;LION;49;14500;7200;192;58;58;60;8400;3000;3780;3782;1;13007;29.84;30.04;32,7;BCS1388054;5;1
009607;20.12.2019;17:27:49;Stop          ;03.12.2018;FEY;;LION;49;14500;7200;224;59;93;100;8400;;4152;4152;1;13008;26.64;27.94;31,0;BCS1388054;5;1
009607;06.01.2020;06:34:55;Charge to 60% ;03.12.2018;FEY;;LION;49;14500;7200;224;59;92;99;8400;;4122;4122;1;13008;26.54;28.14;31,9;BCS1388054;5;1
009607;06.01.2020;09:30:26;Stop          ;03.12.2018;FEY;;LION;49;14500;7200;192;60;57;60;8400;3000;3765;3766;1;13008;32.64;33.74;33,9;BCS1388054;5;1
009607;06.01.2020;09:50:42;Fastcharge    ;03.12.2018;FEY;;LION;49;14500;7200;192;60;57;60;8400;3000;3778;3779;1;13008;31.14;30.64;32,7;BCS1388054;5;1
009607;06.01.2020;13:09:56;Stop          ;03.12.2018;FEY;;LION;49;14500;7200;224;60;94;100;8400;;4160;4161;1;13008;28.94;29.34;31,4;BCS1388054;5;1

File: 009609.txt
Serialnumber ; Date ; Time ; Action ; Date of Manufacture ; Manufacturer ; Battery Name ; Device-Chemistry ; Specification-Info ; Design-Capacity [mAh] ; Design-Voltage [mV] ; Battery Status ; Cycle Count ; SOC [%] ; Relativ SOC[%] ; Desired Voltage [mV]; Desired Current [mA]; Cell Voltage 1 [mV] ; Cell Voltage 2 [mV] ; Max_Error [%] ; Busvoltage[mV] ; Battery Temperature [°C] ; Charger Temperature [°C] ; Batterysystem ; Case ; PLace
009609;10.12.2019;15:28:54;Charge to 30% ;04.12.2018;FEY;;LION;49;14500;7200;224;52;92;100;8400;;4127;4128;1;13013;22.64;24.34;27,1;BCS1388054;4;15
009609;10.12.2019;20:47:57;Stop          ;04.12.2018;FEY;;LION;49;14500;7200;192;53;28;30;8400;3000;3560;3560;1;13012;34.14;34.84;33,4;BCS1388054;4;15
009609;11.12.2019;08:48:41;Fastcharge    ;04.12.2018;FEY;;LION;49;14500;7200;192;53;28;30;8400;3000;3568;3568;1;13011;26.54;28.34;31,9;BCS1388054;4;15
009609;11.12.2019;13:42:44;Stop          ;04.12.2018;FEY;;LION;49;14500;7200;224;53;94;100;8400;;4159;4160;1;13012;30.64;30.84;31,9;BCS1388054;4;15
009609;11.12.2019;15:46:31;Charge to 10% ;04.12.2018;FEY;;LION;49;14500;7200;224;53;95;100;8400;;4152;4152;1;13010;27.44;28.64;31,4;BCS1388054;4;15
009609;11.12.2019;22:50:44;Stop          ;04.12.2018;FEY;;LION;49;14500;7200;192;54;10;10;8400;3000;3355;3355;1;13011;34.84;34.64;33,2;BCS1388054;4;15
009609;12.12.2019;08:45:03;Normalcharge  ;04.12.2018;FEY;;LION;49;14500;7200;192;54;9;9;8400;3000;3363;3364;1;13011;26.64;28.44;31,9;BCS1388054;4;15
009609;12.12.2019;16:41:48;Stop          ;04.12.2018;FEY;;LION;49;14500;7200;224;54;94;100;8400;;4159;4159;1;13012;29.64;30.34;31,5;BCS1388054;4;15
009609;13.12.2019;10:48:01;Charge to 10% ;04.12.2018;FEY;;LION;49;14500;7200;224;54;95;100;8400;;4148;4148;1;13011;26.74;28.44;32,0;BCS1388054;4;15
009609;13.12.2019;15:42:25;Stop          ;04.12.2018;FEY;;LION;49;14500;7200;192;55;34;36;8400;3000;3497;3549;1;13513;33.44;40.54;34,6;BCS1388054;4;15
009609;13.12.2019;15:42:27;Cycle         ;04.12.2018;FEY;;LION;49;14500;7200;192;55;34;36;8400;3000;3497;3549;1;13513;33.44;40.54;34,6;BCS1388054;4;15
009609;14.12.2019;22:44:28;Stop          ;04.12.2018;FEY;;LION;49;14500;7200;224;56;92;99;8400;;4150;4151;1;13011;26.84;28.44;32,0;BCS1388054;4;15
009609;16.12.2019;07:43:14;Charge to 10% ;04.12.2018;FEY;;LION;49;14500;7200;224;56;93;100;8400;;4144;4145;1;13012;26.54;28.04;31,9;BCS1388054;4;15
009609;16.12.2019;14:36:44;Stop          ;04.12.2018;FEY;;LION;49;14500;7200;192;57;10;10;8400;3000;3366;3367;1;13013;33.14;33.34;32,4;BCS1388054;4;15
009609;16.12.2019;14:44:13;Charge to 90% ;04.12.2018;FEY;;LION;49;14500;7200;192;57;10;10;8400;3000;3367;3368;1;13012;32.54;31.64;31,7;BCS1388054;4;15
009609;16.12.2019;20:50:28;Stop          ;04.12.2018;FEY;;LION;49;14500;7200;192;57;84;90;8400;3000;4054;4054;1;13013;32.34;32.64;31,6;BCS1388054;4;15
009609;17.12.2019;08:37:50;Fastcharge    ;04.12.2018;FEY;;LION;49;14500;7200;192;57;84;90;8400;3000;4046;4046;1;13011;26.54;28.24;31,6;BCS1388054;4;15
009609;17.12.2019;10:31:07;Stop          ;04.12.2018;FEY;;LION;49;14500;7200;224;57;94;100;8400;;4161;4161;1;13011;28.54;30.34;31,4;BCS1388054;4;15
009609;17.12.2019;13:38:32;Charge to 10% ;04.12.2018;FEY;;LION;49;14500;7200;224;57;94;100;8400;;4149;4148;1;13012;26.84;28.24;30,8;BCS1388054;4;15
009609;17.12.2019;20:34:29;Stop          ;04.12.2018;FEY;;LION;49;14500;7200;192;58;10;10;8400;3000;3366;3366;1;13012;34.84;34.84;34,1;BCS1388054;4;15
009609;18.12.2019;08:31:26;Fastcharge    ;04.12.2018;FEY;;LION;49;14500;7200;192;58;10;10;8400;3000;3374;3374;1;13011;26.64;28.34;31,6;BCS1388054;4;15
009609;18.12.2019;14:29:12;Stop          ;04.12.2018;FEY;;LION;49;14500;7200;224;58;94;100;8400;;4159;4158;1;13012;30.74;30.94;31,9;BCS1388054;4;15
009609;19.12.2019;08:23:58;Charge to 60% ;04.12.2018;FEY;;LION;49;14500;7200;224;58;94;100;8400;;4148;4147;1;13012;26.54;28.24;31,6;BCS1388054;4;15
009609;19.12.2019;11:30:18;Stop          ;04.12.2018;FEY;;LION;49;14500;7200;192;58;57;60;8400;3000;3768;3766;1;13012;34.64;36.14;34,6;BCS1388054;4;15
009609;19.12.2019;12:16:45;Cycle         ;04.12.2018;FEY;;LION;49;14500;7200;192;58;57;60;8400;3000;3776;3775;1;13012;31.14;30.94;32,7;BCS1388054;4;15
009609;20.12.2019;17:30:48;Stop          ;04.12.2018;FEY;;LION;49;14500;7200;224;59;93;100;8400;;4151;4150;1;13013;27.04;28.24;30,6;BCS1388054;4;15
009609;06.01.2020;06:34:50;Charge to 60% ;04.12.2018;FEY;;LION;49;14500;7200;224;59;92;99;8400;;4122;4121;1;13012;26.84;28.44;31,9;BCS1388054;4;15
009609;06.01.2020;09:30:33;Stop          ;04.12.2018;FEY;;LION;49;14500;7200;192;59;56;60;8400;3000;3774;3773;1;13012;33.74;34.94;33,7;BCS1388054;4;15
009609;06.01.2020;09:50:38;Fastcharge    ;04.12.2018;FEY;;LION;49;14500;7200;192;59;56;60;8400;3000;3780;3780;1;13013;32.24;31.64;32,7;BCS1388054;4;15
009609;06.01.2020;13:09:19;Stop          ;04.12.2018;FEY;;LION;49;14500;7200;224;59;93;100;8400;;4157;4156;1;13013;30.24;30.44;31,4;BCS1388054;4;15

File: 009610.txt
Serialnumber ; Date ; Time ; Action ; Date of Manufacture ; Manufacturer ; Battery Name ; Device-Chemistry ; Specification-Info ; Design-Capacity [mAh] ; Design-Voltage [mV] ; Battery Status ; Cycle Count ; SOC [%] ; Relativ SOC[%] ; Desired Voltage [mV]; Desired Current [mA]; Cell Voltage 1 [mV] ; Cell Voltage 2 [mV] ; Max_Error [%] ; Busvoltage[mV] ; Battery Temperature [°C] ; Charger Temperature [°C] ; Batterysystem ; Case ; PLace
009610;07.12.2020;04:14:25;Cycle          ;04.12.2018;FEY;;LION;49;14500;7200;192;2;98;98;8400;;4151;4151;1;13004;25.74;28.54;30,3;BCS1388054;3;13
009610;08.12.2020;16:19:50;Stop           ;04.12.2018;FEY;;LION;49;14500;7200;192;2;98;98;8400;;4149;4149;1;13003;27.94;30.34;31,9;BCS1388054;3;13
009610;12.01.2021;04:17:40;Charge to 90% ;04.12.2018;FEY;;LION;49;14500;7200;192;2;96;97;8400;;4134;4134;1;13019;23.14;24.34;23,6;BCS1388054;6;15
009610;12.01.2021;05:00:55;Stop          ;04.12.2018;FEY;;LION;49;14500;7200;192;2;90;90;8400;3000;4063;4063;1;13012;26.74;30.44;31,2;BCS1388054;6;15
009610;12.01.2021;05:21:57;Cycle         ;04.12.2018;FEY;;LION;49;14500;7200;192;2;90;90;8400;3000;4067;4067;1;13014;26.94;29.24;30,4;BCS1388054;6;15
009610;13.01.2021;08:31:18;Stop          ;04.12.2018;FEY;;LION;49;14500;7200;224;3;96;100;8400;;4156;4155;1;13015;27.04;29.24;31,1;BCS1388054;6;15
009610;21.02.2021;13:44:56;Normalcharge  ;04.12.2018;FEY;;LION;49;14500;7200;192;3;72;75;8400;3000;3900;3900;1;12996;23.04;22.74;27,7;BCS1388054;5;13
009610;21.02.2021;19:31:36;Stop          ;04.12.2018;FEY;;LION;49;14500;7200;224;3;97;100;8400;;4153;4153;1;12993;27.24;28.34;30,6;BCS1388054;5;13
009610;21.02.2021;13:44:56;Normalcharge  ;04.12.2018;FEY;;LION;49;14500;7200;192;3;72;75;8400;3000;3900;3900;1;12996;23.04;22.74;27,7;BCS1388054;5;13
009610;21.02.2021;19:31:36;Stop          ;04.12.2018;FEY;;LION;49;14500;7200;224;3;97;100;8400;;4153;4153;1;12993;27.24;28.34;30,6;BCS1388054;5;14

File: 009628.txt
Serialnumber ; Date ; Time ; Action ; Date of Manufacture ; Manufacturer ; Battery Name ; Device-Chemistry ; Specification-Info ; Design-Capacity [mAh] ; Design-Voltage [mV] ; Battery Status ; Cycle Count ; SOC [%] ; Relativ SOC[%] ; Desired Voltage [mV]; Desired Current [mA]; Cell Voltage 1 [mV] ; Cell Voltage 2 [mV] ; Max_Error [%] ; Busvoltage[mV] ; Battery Temperature [°C] ; Charger Temperature [°C] ; Batterysystem ; Case ; PLace
009628;10.12.2019;15:28:41;Charge to 30% ;03.12.2018;FEY;;LION;49;14500;7200;224;48;92;100;8400;;4133;4131;1;13002;22.54;24.24;27,1;BCS1388054;2;13
009628;10.12.2019;20:48:37;Stop          ;03.12.2018;FEY;;LION;49;14500;7200;192;49;28;30;8400;3000;3560;3560;1;13002;33.34;35.34;33,2;BCS1388054;2;13
009628;11.12.2019;08:48:24;Fastcharge    ;03.12.2018;FEY;;LION;49;14500;7200;192;49;28;30;8400;3000;3567;3568;1;13001;25.94;27.84;31,9;BCS1388054;2;13
009628;11.12.2019;13:39:47;Stop          ;03.12.2018;FEY;;LION;49;14500;7200;224;49;94;100;8400;;4163;4162;1;13000;30.24;31.54;32,5;BCS1388054;2;13
009628;11.12.2019;15:46:18;Charge to 10% ;03.12.2018;FEY;;LION;49;14500;7200;224;49;95;100;8400;;4154;4153;1;13000;26.84;28.54;31,4;BCS1388054;2;13
009628;11.12.2019;22:49:04;Stop          ;03.12.2018;FEY;;LION;49;14500;7200;192;50;10;10;8400;3000;3353;3354;1;13001;34.24;36.14;33,6;BCS1388054;2;13
009628;12.12.2019;08:44:52;Normalcharge  ;03.12.2018;FEY;;LION;49;14500;7200;192;50;9;9;8400;3000;3362;3364;1;12999;26.14;28.14;31,9;BCS1388054;2;13
009628;12.12.2019;16:40:06;Stop          ;03.12.2018;FEY;;LION;49;14500;7200;224;50;95;100;8400;;4160;4162;1;13001;29.24;30.84;31,7;BCS1388054;2;13
009628;13.12.2019;10:47:50;Charge to 10% ;03.12.2018;FEY;;LION;49;14500;7200;224;50;95;100;8400;;4148;4150;1;13000;26.14;28.14;32,0;BCS1388054;2;13
009628;13.12.2019;15:42:08;Cycle         ;03.12.2018;FEY;;LION;49;14500;7200;192;51;34;36;8400;3000;3498;3551;1;13561;33.04;42.04;34,6;BCS1388054;2;13
009628;13.12.2019;15:42:08;Stop          ;03.12.2018;FEY;;LION;49;14500;7200;192;51;34;36;8400;3000;3498;3551;1;13561;33.04;42.04;34,6;BCS1388054;2;13
009628;14.12.2019;22:48:51;Stop          ;03.12.2018;FEY;;LION;49;14500;7200;224;52;92;99;8400;;4152;4152;1;13001;26.34;28.14;32,0;BCS1388054;2;13
009628;16.12.2019;07:43:06;Charge to 10% ;03.12.2018;FEY;;LION;49;14500;7200;224;52;93;100;8400;;4146;4146;1;13001;25.84;27.64;31,9;BCS1388054;2;13
009628;16.12.2019;14:37:54;Stop          ;03.12.2018;FEY;;LION;49;14500;7200;192;53;10;10;8400;3000;3365;3367;1;13001;32.64;33.94;32,4;BCS1388054;2;13
009628;16.12.2019;14:44:03;Charge to 90% ;03.12.2018;FEY;;LION;49;14500;7200;192;53;10;10;8400;3000;3366;3368;1;13002;32.14;32.34;31,9;BCS1388054;2;13
009628;16.12.2019;20:51:09;Stop          ;03.12.2018;FEY;;LION;49;14500;7200;192;53;84;90;8400;3000;4055;4056;1;13003;31.74;33.04;31,6;BCS1388054;2;13
009628;17.12.2019;08:37:41;Fastcharge    ;03.12.2018;FEY;;LION;49;14500;7200;192;53;84;90;8400;3000;4047;4048;1;13000;25.94;27.84;31,6;BCS1388054;2;13
009628;17.12.2019;10:30:36;Stop          ;03.12.2018;FEY;;LION;49;14500;7200;224;53;94;100;8400;;4159;4160;1;13000;27.84;30.14;31,5;BCS1388054;2;13
009628;17.12.2019;13:38:22;Charge to 10% ;03.12.2018;FEY;;LION;49;14500;7200;224;53;94;100;8400;;4149;4149;1;13001;26.34;28.14;30,8;BCS1388054;2;13
009628;17.12.2019;20:36:00;Stop          ;03.12.2018;FEY;;LION;49;14500;7200;192;54;10;10;8400;3000;3365;3367;1;13000;33.94;35.14;33,6;BCS1388054;2;13
009628;18.12.2019;08:31:17;Fastcharge    ;03.12.2018;FEY;;LION;49;14500;7200;192;54;10;10;8400;3000;3373;3376;1;13002;26.04;28.04;31,6;BCS1388054;2;13
009628;18.12.2019;14:28:27;Stop          ;03.12.2018;FEY;;LION;49;14500;7200;224;54;94;100;8400;;4161;4159;1;13002;30.24;31.24;32,0;BCS1388054;2;13
009628;19.12.2019;08:23:50;Charge to 60% ;03.12.2018;FEY;;LION;49;14500;7200;224;54;94;100;8400;;4149;4148;1;13001;25.94;27.84;31,5;BCS1388054;2;13
009628;19.12.2019;11:32:11;Stop          ;03.12.2018;FEY;;LION;49;14500;7200;192;55;57;60;8400;3000;3772;3774;1;13001;33.84;35.94;34,0;BCS1388054;2;13
009628;19.12.2019;12:16:37;Cycle         ;03.12.2018;FEY;;LION;49;14500;7200;192;55;57;60;8400;3000;3780;3782;1;13001;30.54;30.84;32,7;BCS1388054;2;13
009628;20.12.2019;17:35:47;Stop          ;03.12.2018;FEY;;LION;49;14500;7200;224;56;93;100;8400;;4151;4153;1;13001;26.34;28.04;31,1;BCS1388054;2;13
009628;06.01.2020;06:34:42;Charge to 60% ;03.12.2018;FEY;;LION;49;14500;7200;192;56;92;98;8400;;4123;4124;1;13001;26.04;27.84;31,9;BCS1388054;2;13
009628;06.01.2020;09:32:11;Stop          ;03.12.2018;FEY;;LION;49;14500;7200;192;56;56;60;8400;3000;3777;3782;1;13003;32.94;35.04;33,2;BCS1388054;2;13
009628;06.01.2020;09:50:30;Fastcharge    ;03.12.2018;FEY;;LION;49;14500;7200;192;56;56;60;8400;3000;3783;3788;1;13003;31.64;31.54;32,7;BCS1388054;2;13
009628;06.01.2020;13:08:34;Stop          ;03.12.2018;FEY;;LION;49;14500;7200;224;56;94;100;8400;;4158;4160;1;13002;29.64;30.74;31,6;BCS1388054;2;13

File: 009644.txt
Serialnumber ; Date ; Time ; Action ; Date of Manufacture ; Manufacturer ; Battery Name ; Device-Chemistry ; Specification-Info ; Design-Capacity [mAh] ; Design-Voltage [mV] ; Battery Status ; Cycle Count ; SOC [%] ; Relativ SOC[%] ; Desired Voltage [mV]; Desired Current [mA]; Cell Voltage 1 [mV] ; Cell Voltage 2 [mV] ; Max_Error [%] ; Busvoltage[mV] ; Battery Temperature [°C] ; Charger Temperature [°C] ; Batterysystem ; Case ; PLace
009644;10.12.2019;15:28:40;Charge to 30% ;03.12.2018;FEY;;LION;49;14500;7200;224;54;93;100;8400;;4132;4131;1;13009;22.54;25.54;27,1;BCS1388054;2;10
009644;10.12.2019;20:48:37;Stop          ;03.12.2018;FEY;;LION;49;14500;7200;192;55;29;30;8400;3000;3560;3559;1;13007;33.24;34.04;33,2;BCS1388054;2;10
009644;11.12.2019;08:48:24;Fastcharge    ;03.12.2018;FEY;;LION;49;14500;7200;192;55;29;30;8400;3000;3568;3567;1;13008;25.94;28.54;31,9;BCS1388054;2;10
009644;11.12.2019;13:39:47;Stop          ;03.12.2018;FEY;;LION;49;14500;7200;224;55;94;100;8400;;4161;4161;1;13008;30.14;31.04;32,5;BCS1388054;2;10
009644;11.12.2019;15:46:18;Charge to 10% ;03.12.2018;FEY;;LION;49;14500;7200;224;55;96;100;8400;;4153;4153;1;13008;26.84;29.04;31,4;BCS1388054;2;10
009644;11.12.2019;22:49:04;Stop          ;03.12.2018;FEY;;LION;49;14500;7200;192;56;10;10;8400;3000;3354;3353;1;13006;34.24;34.64;33,6;BCS1388054;2;10
009644;12.12.2019;08:44:52;Normalcharge  ;03.12.2018;FEY;;LION;49;14500;7200;192;56;9;10;8400;3000;3364;3363;1;13009;26.04;28.84;31,9;BCS1388054;2;10
009644;12.12.2019;16:40:06;Stop          ;03.12.2018;FEY;;LION;49;14500;7200;224;56;95;100;8400;;4160;4161;1;13008;29.14;30.54;31,7;BCS1388054;2;10
009644;13.12.2019;10:47:50;Charge to 10% ;03.12.2018;FEY;;LION;49;14500;7200;224;56;95;100;8400;;4148;4148;1;13008;26.14;28.84;32,0;BCS1388054;2;10
009644;13.12.2019;15:42:08;Cycle         ;03.12.2018;FEY;;LION;49;14500;7200;192;56;34;36;8400;3000;3502;3552;1;13575;32.94;39.04;34,6;BCS1388054;2;10
009644;13.12.2019;15:42:08;Stop          ;03.12.2018;FEY;;LION;49;14500;7200;192;56;34;36;8400;3000;3502;3552;1;13575;32.94;39.04;34,6;BCS1388054;2;10
009644;14.12.2019;22:48:51;Stop          ;03.12.2018;FEY;;LION;49;14500;7200;224;58;93;99;8400;;4151;4150;1;13008;26.24;28.74;32,0;BCS1388054;2;10
009644;16.12.2019;07:43:06;Charge to 10% ;03.12.2018;FEY;;LION;49;14500;7200;224;58;93;100;8400;;4145;4144;1;13009;25.84;28.14;31,9;BCS1388054;2;10
009644;16.12.2019;14:37:54;Stop          ;03.12.2018;FEY;;LION;49;14500;7200;192;59;10;10;8400;3000;3366;3365;1;13007;32.74;32.84;32,4;BCS1388054;2;10
009644;16.12.2019;14:44:03;Charge to 90% ;03.12.2018;FEY;;LION;49;14500;7200;192;59;10;10;8400;3000;3368;3366;1;13009;32.24;32.14;31,9;BCS1388054;2;10
009644;16.12.2019;20:51:09;Stop          ;03.12.2018;FEY;;LION;49;14500;7200;192;59;84;90;8400;3000;4057;4058;1;13010;31.64;31.94;31,6;BCS1388054;2;10
009644;17.12.2019;08:37:40;Fastcharge    ;03.12.2018;FEY;;LION;49;14500;7200;192;59;84;90;8400;3000;4048;4048;1;13009;25.94;28.54;31,6;BCS1388054;2;10
009644;17.12.2019;10:30:36;Stop          ;03.12.2018;FEY;;LION;49;14500;7200;224;59;95;100;8400;;4161;4162;1;13009;27.64;30.14;31,5;BCS1388054;2;10
009644;17.12.2019;13:38:22;Charge to 10% ;03.12.2018;FEY;;LION;49;14500;7200;224;59;95;100;8400;;4149;4150;1;13008;26.24;28.64;30,8;BCS1388054;2;10
009644;17.12.2019;20:36:00;Stop          ;03.12.2018;FEY;;LION;49;14500;7200;192;60;10;10;8400;3000;3364;3364;1;13007;34.04;34.14;33,6;BCS1388054;2;10
009644;18.12.2019;08:31:17;Fastcharge    ;03.12.2018;FEY;;LION;49;14500;7200;192;60;10;10;8400;3000;3373;3373;1;13010;26.04;28.74;31,6;BCS1388054;2;10
009644;18.12.2019;14:28:27;Stop          ;03.12.2018;FEY;;LION;49;14500;7200;224;60;95;100;8400;;4160;4161;1;13009;30.14;30.94;32,0;BCS1388054;2;10
009644;19.12.2019;08:23:50;Charge to 60% ;03.12.2018;FEY;;LION;49;14500;7200;224;60;95;100;8400;;4149;4149;1;13008;25.94;28.54;31,5;BCS1388054;2;10
009644;19.12.2019;11:32:11;Stop          ;03.12.2018;FEY;;LION;49;14500;7200;192;61;58;60;8400;3000;3774;3772;1;13007;33.74;34.64;34,0;BCS1388054;2;10
009644;19.12.2019;12:16:37;Cycle         ;03.12.2018;FEY;;LION;49;14500;7200;192;61;58;60;8400;3000;3782;3782;1;13008;30.54;31.04;32,7;BCS1388054;2;10
009644;20.12.2019;17:35:47;Stop          ;03.12.2018;FEY;;LION;49;14500;7200;224;62;93;100;8400;;4152;4152;1;13010;26.24;28.54;31,1;BCS1388054;2;10
009644;06.01.2020;06:34:42;Charge to 60% ;03.12.2018;FEY;;LION;49;14500;7200;224;62;92;99;8400;;4123;4123;1;13010;25.94;28.64;31,9;BCS1388054;2;10
009644;06.01.2020;09:32:11;Stop          ;03.12.2018;FEY;;LION;49;14500;7200;192;62;57;60;8400;3000;3774;3772;1;13009;32.94;34.04;33,2;BCS1388054;2;10
009644;06.01.2020;09:50:30;Fastcharge    ;03.12.2018;FEY;;LION;49;14500;7200;192;62;57;60;8400;3000;3782;3780;1;13010;31.64;31.74;32,7;BCS1388054;2;10
009644;06.01.2020;13:08:34;Stop          ;03.12.2018;FEY;;LION;49;14500;7200;224;62;94;100;8400;;4159;4159;1;13011;29.54;30.54;31,6;BCS1388054;2;10