Folder: Battery_sort_V2/reader/as

Note: reader/as/009557.txt
Serialnumber ; Date ; Time ; Action ; Date of Manufacture ; Manufacturer ; Battery Name ; Device-Chemistry ; Specification-Info ; Design-Capacity [mAh] ; Design-Voltage [mV] ; Battery Status ; Cycle Count ; SOC [%] ; Relativ SOC[%] ; Desired Voltage [mV]; Desired Current [mA]; Cell Voltage 1 [mV] ; Cell Voltage 2 [mV] ; Max_Error [%] ; Busvoltage[mV] ; Battery Temperature [°C] ; Charger Temperature [°C] ; Batterysystem ; Case ; PLace
009557;25.08.2021;08:38:03;Charge to 60% ;04.12.2018;FEY;;LION;49;14500;7200;144;2;2;2;8400;3000;3063;3064;1;13015;27.84;34.24;36,1;BCS1388054;7;15
009557;25.08.2021;13:26:36;Stop          ;04.12.2018;FEY;;LION;49;14500;7200;128;2;58;60;8400;3000;3862;3812;1;13014;35.24;38.94;36,4;BCS1388054;7;15

Note: reader/as/009572.txt
009572;29.11.2020;04:36:38;Cycle         ;04.12.2018;FEY;;LION;49;14500;7200;224;2;97;99;8400;;4154;4157;1;13009;23.14;17.64;27,9;BCS1388054;4;12
009572;07.02.2021;08:46:42;Normalcharge  ;04.12.2018;FEY;;LION;49;14500;7200;192;3;95;98;8400;;4118;4119;1;12991;23.74;26.14;29,2;BCS1388054;1;9
009572;07.02.2021;11:52:07;Stop          ;04.12.2018;FEY;;LION;49;14500;7200;192;3;95;98;8400;;4118;4119;1;12991;25.84;27.14;29,7;BCS1388054;1;9
009572;03.03.2021;08:17:21;Normalcharge  ;04.12.2018;FEY;;LION;49;14500;7200;192;3;90;93;8400;3000;4069;4069;1;13007;23.24;22.94;23,5;BCS1388054;3;7
009572;04.03.2021;07:53:40;Stop           ;04.12.2018;FEY;;LION;49;14500;7200;224;3;97;100;8400;;4146;4147;1;13003;26.64;27.84;31,5;BCS1388054;3;7
009572;04.04.2021;11:50:39;Normalcharge  ;04.12.2018;FEY;;LION;49;14500;7200;224;3;96;99;8400;;4130;4131;1;13009;25.04;25.34;28,1;BCS1388054;1;13
009572;04.04.2021;11:51:54;Stop          ;04.12.2018;FEY;;LION;49;14500;7200;224;3;96;99;8400;;4131;4131;1;12581;25.04;25.64;28,8;BCS1388054;1;13
009572;22.08.2021;11:07:50;Normalcharge  ;04.12.2018;FEY;;LION;49;14500;7200;192;3;84;87;8400;3000;3977;3977;1;12985;22.44;30.94;32,0;BCS1388054;1;2
009572;22.08.2021;11:08:23;Stop          ;04.12.2018;FEY;;LION;49;14500;7200;128;3;84;87;8400;3000;4016;3995;1;12636;22.44;31.84;32,4;BCS1388054;1;2

Note: reader/as/009762.txt
009762;29.11.2020;04:33:37;Cycle          ;04.12.2018;FEY;;LION;49;14500;7200;224;2;94;99;8400;;4156;4156;1;12996;23.24;20.94;27,4;BCS1388054;3;6
009762;07.02.2021;08:47:00;Normalcharge  ;04.12.2018;FEY;;LION;49;14500;7200;192;3;88;92;8400;3000;4064;4064;1;13007;23.64;25.44;29,2;BCS1388054;4;13
009762;07.02.2021;11:52:20;Stop          ;04.12.2018;FEY;;LION;49;14500;7200;224;3;96;100;8400;;4151;4151;1;13009;26.04;27.04;29,7;BCS1388054;4;13
009762;03.03.2021;08:17:08;Normalcharge  ;04.12.2018;FEY;;LION;49;14500;7200;192;3;93;98;8400;;4110;4110;1;12997;23.14;23.14;23,5;BCS1388054;1;2
009762;04.03.2021;07:53:50;Stop          ;04.12.2018;FEY;;LION;49;14500;7200;192;3;93;98;8400;;4110;4109;1;12991;26.14;28.54;31,6;BCS1388054;1;2
009762;04.04.2021;11:50:22;Normalcharge  ;04.12.2018;FEY;;LION;49;14500;7200;192;3;48;51;8400;3000;3657;3657;1;13002;25.24;25.94;27,9;BCS1388054;4;14
009762;04.04.2021;11:51:36;Stop          ;04.12.2018;FEY;;LION;49;14500;7200;128;3;48;51;8400;3000;3742;3693;1;12710;25.24;29.24;28,6;BCS1388054;4;14
009762;05.04.2021;09:38:17;Charge to 60% ;04.12.2018;FEY;;LION;49;14500;7200;192;3;48;51;8400;3000;3658;3658;1;13010;25.04;25.74;26,4;BCS1388054;5;11
009762;05.04.2021;10:34:50;Charge to 60% ;04.12.2018;FEY;;LION;49;14500;7200;192;3;57;60;8400;3000;3738;3738;1;12908;27.94;28.84;32,4;BCS1388054;5;11
009762;05.04.2021;13:16:09;Stop          ;04.12.2018;FEY;;LION;49;14500;7200;192;3;57;60;8400;3000;3735;3735;1;13005;27.74;28.74;32,2;BCS1388054;5;11
009762;22.08.2021;11:37:30;Normalcharge  ;04.12.2018;FEY;;LION;49;14500;7200;192;3;52;55;8400;3000;3690;3690;1;12998;21.64;28.74;31,9;BCS1388054;3;1
009762;22.08.2021;11:38:19;Stop           ;04.12.2018;FEY;;LION;49;14500;7200;128;3;52;55;8400;3000;3774;3729;1;12584;21.84;30.94;32,1;BCS1388054;3;1
009762;25.08.2021;08:15:15;Ladung auf 60% ;04.12.2018;FEY;;LION;49;14500;7200;192;3;52;55;8400;3000;3692;3692;1;12995;30.44;32.54;33,4;BCS1388054;3;1
009762;25.08.2021;08:40:43;Stop           ;04.12.2018;FEY;;LION;49;14500;7200;192;3;57;60;8400;3000;3756;3757;1;12995;32.34;35.94;36,1;BCS1388054;3;1

Note: reader/as/009786.txt
009786;29.11.2020;04:36:38;Cycle         ;03.12.2018;FEY;;LION;49;14500;7200;16576;3;99;99;;;4154;4152;1;13018;23.14;21.74;27,9;BCS1388054;4;18
009786;12.01.2021;04:17:28;Ladung auf 90% ;03.12.2018;FEY;;LION;49;14500;7200;16576;3;97;97;;;4130;4129;1;13014;23.24;22.74;23,6;BCS1388054;3;17
009786;12.01.2021;04:57:30;Stop           ;03.12.2018;FEY;;LION;49;14500;7200;192;3;91;90;8400;3000;4059;4058;1;13008;27.24;29.74;31,5;BCS1388054;3;17
009786;12.01.2021;05:21:45;Cycle          ;03.12.2018;FEY;;LION;49;14500;7200;192;3;91;90;8400;3000;4065;4063;1;13010;27.44;27.74;30,4;BCS1388054;3;17
009786;13.01.2021;08:23:25;Stop           ;03.12.2018;FEY;;LION;49;14500;7200;224;4;98;100;8400;;4155;4155;1;13009;27.24;27.54;31,4;BCS1388054;3;17
009786;21.02.2021;13:43:19;Normalcharge  ;03.12.2018;FEY;;LION;49;14500;7200;192;5;61;63;8400;3000;3784;3784;1;13000;23.94;25.04;27,5;BCS1388054;1;18
009786;22.02.2021;17:08:49;Stop          ;03.12.2018;FEY;;LION;49;14500;7200;224;5;98;100;8400;;4147;4146;1;12999;26.04;26.94;30,0;BCS1388054;1;18
009786;06.04.2021;08:39:10;Normalcharge  ;03.12.2018;FEY;;LION;49;14500;7200;224;5;96;99;8400;;4127;4126;1;13007;21.54;25.54;28,1;BCS1388054;5;3
009786;06.04.2021;08:39:58;Stop          ;03.12.2018;FEY;;LION;49;14500;7200;224;5;96;99;8400;;4127;4126;1;13005;21.64;25.94;28,4;BCS1388054;5;3
009786;08.04.2021;07:58:30;Normalcharge  ;03.12.2018;FEY;;LION;49;14500;7200;224;5;96;99;8400;;4126;4126;1;13008;25.34;25.54;26,4;BCS1388054;5;3
009786;08.04.2021;07:59:28;Stop          ;03.12.2018;FEY;;LION;49;14500;7200;224;5;96;99;8400;;4127;4126;1;13005;25.34;26.14;26,7;BCS1388054;5;3
009786;08.04.2021;10:36:12;Normalcharge  ;03.12.2018;FEY;;LION;49;14500;7200;224;5;96;99;8400;;4126;4126;1;13005;25.54;26.64;28,6;BCS1388054;5;3
009786;08.04.2021;10:37:06;Stop          ;03.12.2018;FEY;;LION;49;14500;7200;224;5;96;99;8400;;4126;4126;1;13004;25.54;27.14;29,0;BCS1388054;5;3
009786;18.04.2021;08:34:16;Normalcharge  ;03.12.2018;FEY;;LION;49;14500;7200;224;5;96;99;8400;;4123;4122;1;13005;26.24;27.44;28,1;BCS1388054;5;3
009786;18.04.2021;08:34:27;Stop          ;03.12.2018;FEY;;LION;49;14500;7200;224;5;96;99;8400;;4123;4122;1;13004;26.24;27.54;28,2;BCS1388054;5;3
009786;04.08.2021;07:24:41;Normalcharge  ;03.12.2018;FEY;;LION;49;14500;7200;192;5;94;96;8400;;4091;4091;1;13002;30.34;31.04;31,5;BCS1388054;5;3
009786;04.08.2021;07:25:23;Stop          ;03.12.2018;FEY;;LION;49;14500;7200;192;5;94;96;8400;;4091;4091;1;13000;30.34;31.54;31,6;BCS1388054;5;3
009786;22.08.2021;11:37:13;Normalcharge  ;03.12.2018;FEY;;LION;49;14500;7200;192;5;94;96;8400;;4087;4087;1;13023;22.74;29.84;31,9;BCS1388054;7;10
009786;22.08.2021;11:37:48;Stop          ;03.12.2018;FEY;;LION;49;14500;7200;192;5;94;96;8400;;4087;4087;1;12997;22.84;30.04;31,9;BCS1388054;7;10

File: 000117.txt
Serialnumber ; Date ; Time ; Action ; Date of Manufacture ; Manufacturer ; Battery Name ; Device-Chemistry ; Specification-Info ; Design-Capacity [mAh] ; Design-Voltage [mV] ; Battery Status ; Cycle Count ; SOC [%] ; Relativ SOC[%] ; Desired Voltage [mV]; Desired Current [mA]; Cell Voltage 1 [mV] ; Cell Voltage 2 [mV] ; Max_Error [%] ; Busvoltage[mV] ; Battery Temperature [°C] ; Charger Temperature [°C] ; Batterysystem ; Case ; PLace
000117;13.12.2019;13:53:33;Fastcharge    ;28.11.2017;FEY;;LION;49;14500;7200;192;14;92;99;8400;3000;4114;4114;1;13020;22.24;32.24;35,8;BCS1388054;7;12
000117;13.12.2019;13:55:00;Stop          ;28.11.2017;FEY;;LION;49;14500;7200;128;14;92;99;8400;3000;4156;4145;1;12744;22.74;32.24;36,1;BCS1388054;7;12
000117;13.12.2019;13:55:04;Charge to 10% ;28.11.2017;FEY;;LION;49;14500;7200;128;14;92;99;8400;3000;4175;4156;1;13019;22.74;32.24;36,1;BCS1388054;7;12
000117;13.12.2019;13:55:27;Stop          ;28.11.2017;FEY;;LION;49;14500;7200;128;14;92;99;8400;3000;4122;4124;1;13410;22.94;31.54;36,1;BCS1388054;7;12
000117;13.12.2019;13:55:29;Fastcharge    ;28.11.2017;FEY;;LION;49;14500;7200;192;14;92;99;8400;3000;4048;4080;1;13367;22.94;31.64;36,1;BCS1388054;7;12
000117;13.12.2019;13:55:29;Stop          ;28.11.2017;FEY;;LION;49;14500;7200;192;14;92;99;8400;3000;4048;4080;1;13367;22.94;31.64;36,1;BCS1388054;7;12
000117;13.12.2019;13:55:33;Normalcharge  ;28.11.2017;FEY;;LION;49;14500;7200;192;14;92;99;8400;3000;4048;4080;1;13033;22.94;31.74;36,1;BCS1388054;7;12
000117;13.12.2019;13:55:39;Fastcharge    ;28.11.2017;FEY;;LION;49;14500;7200;192;14;92;99;8400;3000;4117;4117;1;13002;22.94;31.64;36,1;BCS1388054;7;12
000117;13.12.2019;13:55:39;Stop          ;28.11.2017;FEY;;LION;49;14500;7200;192;14;92;99;8400;3000;4117;4117;1;13002;22.94;31.64;36,1;BCS1388054;7;12
000117;13.12.2019;13:56:34;Stop          ;28.11.2017;FEY;;LION;49;14500;7200;128;14;92;99;8400;3000;4153;4143;1;12719;23.24;31.94;36,2;BCS1388054;7;12
000117;13.12.2019;13:56:38;Charge to 95% ;28.11.2017;FEY;;LION;49;14500;7200;128;14;92;99;8400;3000;4173;4155;1;13021;23.34;31.94;36,2;BCS1388054;7;12
000117;13.12.2019;13:56:40;Stop          ;28.11.2017;FEY;;LION;49;14500;7200;128;14;92;99;8400;3000;4173;4155;1;13021;23.34;31.94;36,2;BCS1388054;7;12
000117;13.12.2019;13:56:48;Charge to 90% ;28.11.2017;FEY;;LION;49;14500;7200;128;14;92;99;8400;3000;4124;4125;1;13020;23.44;31.64;36,2;BCS1388054;7;12
000117;13.12.2019;15:42:54;Stop          ;28.11.2017;FEY;;LION;49;14500;7200;192;14;84;90;8400;3000;4032;4032;1;12955;29.04;30.14;34,5;BCS1388054;7;12
000117;13.12.2019;15:42:59;Fastcharge    ;28.11.2017;FEY;;LION;49;14500;7200;192;14;84;90;8400;3000;4032;4032;1;13021;29.04;30.04;34,4;BCS1388054;7;12
000117;13.12.2019;21:04:43;Stop          ;28.11.2017;FEY;;LION;49;14500;7200;224;14;94;100;8400;;4147;4147;1;13022;26.74;27.24;31,7;BCS1388054;7;12

File: 001025.txt
Serialnumber ; Date ; Time ; Action ; Date of Manufacture ; Manufacturer ; Battery Name ; Device-Chemistry ; Specification-Info ; Design-Capacity [mAh] ; Design-Voltage [mV] ; Battery Status ; Cycle Count ; SOC [%] ; Relativ SOC[%] ; Desired Voltage [mV]; Desired Current [mA]; Cell Voltage 1 [mV] ; Cell Voltage 2 [mV] ; Max_Error [%] ; Busvoltage[mV] ; Battery Temperature [°C] ; Charger Temperature [°C] ; Batterysystem ; Case ; PLace
001025;10.12.2019;15:29:15;Charge to 30% ;28.11.2017;FEY;;LION;49;14500;7200;224;22;93;99;8400;;4124;4123;1;13034;22.44;24.04;27,1;BCS1388054;7;16
001025;10.12.2019;20:46:56;Stop          ;28.11.2017;FEY;;LION;49;14500;7200;192;23;28;30;8400;3000;3555;3555;1;13032;32.64;31.44;33,5;BCS1388054;7;16
001025;11.12.2019;08:49:12;Fastcharge    ;28.11.2017;FEY;;LION;49;14500;7200;192;23;28;30;8400;3000;3562;3562;1;13031;25.84;26.94;31,9;BCS1388054;7;16
001025;11.12.2019;13:38:42;Stop          ;28.11.2017;FEY;;LION;49;14500;7200;224;23;94;100;8400;;4163;4162;1;13032;29.74;28.94;32,7;BCS1388054;7;16
001025;11.12.2019;15:46:56;Charge to 10% ;28.11.2017;FEY;;LION;49;14500;7200;224;23;95;100;8400;;4156;4155;1;13031;26.74;27.14;31,2;BCS1388054;7;16
001025;11.12.2019;22:51:50;Stop          ;28.11.2017;FEY;;LION;49;14500;7200;192;24;10;10;8400;3000;3355;3355;1;13030;33.24;31.14;33,0;BCS1388054;7;16
001025;12.12.2019;08:45:27;Normalcharge  ;28.11.2017;FEY;;LION;49;14500;7200;192;24;9;10;8400;3000;3363;3363;1;13031;26.04;27.04;31,7;BCS1388054;7;16
001025;12.12.2019;16:41:08;Stop          ;28.11.2017;FEY;;LION;49;14500;7200;224;24;95;100;8400;;4159;4159;1;13032;28.84;28.24;31,6;BCS1388054;7;16
001025;13.12.2019;10:48:13;Charge to 10% ;28.11.2017;FEY;;LION;49;14500;7200;224;24;95;100;8400;;4150;4150;1;13032;26.04;27.14;32,0;BCS1388054;7;16
001025;13.12.2019;13:48:48;Stop          ;28.11.2017;FEY;;LION;49;14500;7200;192;24;57;61;8400;3000;3673;3727;1;13548;33.94;38.44;36,8;BCS1388054;7;16
001025;16.12.2019;07:43:34;Charge to 10% ;28.11.2017;FEY;;LION;49;14500;7200;192;24;57;61;8400;3000;3778;3779;1;13031;22.54;25.74;31,7;BCS1388054;7;16
001025;16.12.2019;11:52:34;Stop          ;28.11.2017;FEY;;LION;49;14500;7200;192;25;10;10;8400;3000;3358;3358;1;13031;32.14;31.44;34,7;BCS1388054;7;16
001025;16.12.2019;14:44:25;Charge to 90% ;28.11.2017;FEY;;LION;49;14500;7200;192;25;9;10;8400;3000;3362;3362;1;13031;28.54;28.44;31,7;BCS1388054;7;16
001025;16.12.2019;20:53:59;Stop          ;28.11.2017;FEY;;LION;49;14500;7200;192;25;84;90;8400;3000;4050;4050;1;13032;31.04;29.74;32,1;BCS1388054;7;16
001025;17.12.2019;08:38:02;Fastcharge    ;28.11.2017;FEY;;LION;49;14500;7200;192;25;84;90;8400;3000;4042;4042;1;13031;25.94;26.94;31,6;BCS1388054;7;16
001025;17.12.2019;10:36:25;Stop          ;28.11.2017;FEY;;LION;49;14500;7200;224;25;94;100;8400;;4159;4158;1;13032;27.64;28.04;31,5;BCS1388054;7;16
001025;17.12.2019;13:38:44;Charge to 10% ;28.11.2017;FEY;;LION;49;14500;7200;224;25;94;100;8400;;4152;4152;1;13032;26.34;27.04;30,8;BCS1388054;7;16
001025;17.12.2019;20:42:03;Stop          ;28.11.2017;FEY;;LION;49;14500;7200;192;26;10;10;8400;3000;3358;3358;1;13032;32.94;30.84;32,6;BCS1388054;7;16
001025;18.12.2019;08:31:43;Fastcharge    ;28.11.2017;FEY;;LION;49;14500;7200;192;26;9;10;8400;3000;3365;3365;1;13031;26.04;27.04;31,6;BCS1388054;7;16
001025;18.12.2019;14:30:48;Stop          ;28.11.2017;FEY;;LION;49;14500;7200;224;26;93;100;8400;;4161;4161;1;13031;29.64;28.64;31,6;BCS1388054;7;16
001025;19.12.2019;08:24:17;Charge to 60% ;28.11.2017;FEY;;LION;49;14500;7200;224;26;94;100;8400;;4151;4151;1;13032;25.94;26.94;31,6;BCS1388054;7;16
001025;19.12.2019;11:28:26;Stop          ;28.11.2017;FEY;;LION;49;14500;7200;192;27;57;60;8400;3000;3766;3767;1;13031;33.24;32.94;35,1;BCS1388054;7;16
001025;19.12.2019;12:16:57;Cycle         ;28.11.2017;FEY;;LION;49;14500;7200;192;27;57;60;8400;3000;3777;3778;1;13033;29.94;28.84;32,7;BCS1388054;7;16
001025;20.12.2019;17:22:28;Stop          ;28.11.2017;FEY;;LION;49;14500;7200;224;28;93;100;8400;;4154;4153;1;13031;26.34;27.24;31,9;BCS1388054;7;16
001025;06.01.2020;06:35:02;Charge to 60% ;28.11.2017;FEY;;LION;49;14500;7200;192;28;92;98;8400;;4124;4123;1;13033;26.04;26.94;31,9;BCS1388054;7;16
001025;06.01.2020;09:29:52;Stop          ;28.11.2017;FEY;;LION;49;14500;7200;192;28;56;60;8400;3000;3760;3760;1;13032;32.44;32.04;34,0;BCS1388054;7;16
001025;06.01.2020;09:50:50;Fastcharge    ;28.11.2017;FEY;;LION;49;14500;7200;192;28;56;60;8400;3000;3770;3771;1;13033;30.84;29.54;32,7;BCS1388054;7;16
001025;06.01.2020;13:05:11;Stop          ;28.11.2017;FEY;;LION;49;14500;7200;224;28;94;100;8400;;4160;4159;1;13032;29.34;28.84;32,4;BCS1388054;7;16

File: 001108.txt
Serialnumber ; Date ; Time ; Action ; Date of Manufacture ; Manufacturer ; Battery Name ; Device-Chemistry ; Specification-Info ; Design-Capacity [mAh] ; Design-Voltage [mV] ; Battery Status ; Cycle Count ; SOC [%] ; Relativ SOC[%] ; Desired Voltage [mV]; Desired Current [mA]; Cell Voltage 1 [mV] ; Cell Voltage 2 [mV] ; Max_Error [%] ; Busvoltage[mV] ; Battery Temperature [°C] ; Charger Temperature [°C] ; Batterysystem ; Case ; PLace
001108;10.12.2019;15:29:09;Charge to 30% ;19.03.2018;FEY;;LION;49;14500;7200;224;7;93;99;8400;;4122;4122;1;13011;21.74;25.04;27,1;BCS1388054;6;7
001108;10.12.2019;20:46:41;Stop          ;19.03.2018;FEY;;LION;49;14500;7200;192;8;29;30;8400;3000;3557;3557;1;13007;32.14;34.34;33,6;BCS1388054;6;7
001108;11.12.2019;08:49:03;Fastcharge    ;19.03.2018;FEY;;LION;49;14500;7200;192;8;29;30;8400;3000;3566;3567;1;13009;25.64;28.04;31,9;BCS1388054;6;7
001108;11.12.2019;13:39:30;Stop          ;19.03.2018;FEY;;LION;49;14500;7200;224;8;95;100;8400;;4162;4162;1;13009;29.44;30.54;32,5;BCS1388054;6;7
001108;11.12.2019;15:46:47;Charge to 10% ;19.03.2018;FEY;;LION;49;14500;7200;224;8;96;100;8400;;4155;4155;1;13009;26.34;28.44;31,4;BCS1388054;6;7
001108;11.12.2019;22:52:10;Stop          ;19.03.2018;FEY;;LION;49;14500;7200;192;9;10;10;8400;3000;3354;3356;1;13008;32.74;33.74;33,0;BCS1388054;6;7
001108;12.12.2019;08:45:18;Normalcharge  ;19.03.2018;FEY;;LION;49;14500;7200;192;9;8;9;8400;3000;3364;3365;1;13008;25.74;28.24;31,7;BCS1388054;6;7
001108;12.12.2019;16:41:29;Stop          ;19.03.2018;FEY;;LION;49;14500;7200;224;9;95;100;8400;;4161;4160;1;13008;28.54;29.94;31,5;BCS1388054;6;7
001108;13.12.2019;10:48:09;Charge to 10% ;19.03.2018;FEY;;LION;49;14500;7200;224;9;95;100;8400;;4150;4150;1;13008;25.74;28.24;32,0;BCS1388054;6;7
001108;13.12.2019;13:51:54;Stop          ;19.03.2018;FEY;;LION;49;14500;7200;192;9;57;60;8400;3000;3677;3732;1;13490;33.34;40.64;36,1;BCS1388054;6;7
001108;13.12.2019;13:53:13;Fastcharge    ;19.03.2018;FEY;;LION;49;14500;7200;192;9;57;60;8400;3000;3766;3767;1;13005;33.34;38.14;35,8;BCS1388054;6;7
001108;13.12.2019;13:53:19;Stop          ;19.03.2018;FEY;;LION;49;14500;7200;192;9;57;60;8400;3000;3766;3767;1;12995;33.34;37.94;35,8;BCS1388054;6;7
001108;13.12.2019;13:53:25;Normalcharge  ;19.03.2018;FEY;;LION;49;14500;7200;192;9;57;60;8400;3000;3766;3768;1;13006;33.34;37.94;35,8;BCS1388054;6;7
001108;13.12.2019;20:04:59;Stop          ;19.03.2018;FEY;;LION;49;14500;7200;224;9;96;100;8400;;4155;4154;1;13008;27.34;29.24;32,0;BCS1388054;6;7
001108;16.12.2019;07:43:27;Charge to 10% ;19.03.2018;FEY;;LION;49;14500;7200;224;9;95;100;8400;;4146;4146;1;13009;25.54;27.34;31,7;BCS1388054;6;7
001108;16.12.2019;14:43:10;Stop          ;19.03.2018;FEY;;LION;49;14500;7200;192;10;10;10;8400;3000;3357;3359;1;13009;30.74;32.04;31,7;BCS1388054;6;7
001108;16.12.2019;14:44:21;Charge to 90% ;19.03.2018;FEY;;LION;49;14500;7200;192;10;10;10;8400;3000;3357;3359;1;13009;30.64;31.54;31,9;BCS1388054;6;7
001108;16.12.2019;20:54:26;Stop          ;19.03.2018;FEY;;LION;49;14500;7200;192;10;85;90;8400;3000;4052;4053;1;13010;31.04;32.24;32,1;BCS1388054;6;7
001108;17.12.2019;08:37:57;Fastcharge    ;19.03.2018;FEY;;LION;49;14500;7200;192;10;85;90;8400;3000;4043;4043;1;13009;25.64;28.04;31,6;BCS1388054;6;7
001108;17.12.2019;13:38:40;Charge to 10% ;19.03.2018;FEY;;LION;49;14500;7200;224;10;95;100;8400;;4152;4152;1;13009;25.94;28.04;30,8;BCS1388054;6;7
001108;17.12.2019;20:41:41;Stop          ;19.03.2018;FEY;;LION;49;14500;7200;192;11;10;10;8400;3000;3357;3359;1;13009;32.64;34.04;32,6;BCS1388054;6;7
001108;18.12.2019;08:31:34;Fastcharge    ;19.03.2018;FEY;;LION;49;14500;7200;192;11;8;9;8400;3000;3367;3369;1;13008;25.74;28.14;31,6;BCS1388054;6;7
001108;18.12.2019;14:33:31;Stop          ;19.03.2018;FEY;;LION;49;14500;7200;224;11;94;100;8400;;4161;4161;1;13010;29.24;30.04;31,4;BCS1388054;6;7
001108;19.12.2019;08:24:06;Charge to 60% ;19.03.2018;FEY;;LION;49;14500;7200;224;11;95;100;8400;;4151;4151;1;13009;25.64;28.04;31,5;BCS1388054;6;7
001108;19.12.2019;11:34:24;Stop          ;19.03.2018;FEY;;LION;49;14500;7200;192;12;57;60;8400;3000;3779;3781;1;13009;32.44;33.64;33,5;BCS1388054;6;7
001108;19.12.2019;12:16:53;Cycle         ;19.03.2018;FEY;;LION;49;14500;7200;192;12;57;60;8400;3000;3785;3787;1;13010;29.44;30.14;32,7;BCS1388054;6;7
001108;20.12.2019;17:31:05;Stop          ;19.03.2018;FEY;;LION;49;14500;7200;224;13;94;100;8400;;4154;4154;1;13009;26.04;27.94;30,6;BCS1388054;6;7
001108;06.01.2020;06:34:58;Charge to 60% ;19.03.2018;FEY;;LION;49;14500;7200;192;13;92;98;8400;;4124;4124;1;13009;25.84;28.14;31,9;BCS1388054;6;7
001108;06.01.2020;09:30:42;Stop          ;19.03.2018;FEY;;LION;49;14500;7200;192;14;57;60;8400;3000;3773;3775;1;13010;31.84;34.54;33,7;BCS1388054;6;7
001108;06.01.2020;09:50:46;Fastcharge    ;19.03.2018;FEY;;LION;49;14500;7200;192;14;57;60;8400;3000;3783;3785;1;13010;30.54;30.74;32,7;BCS1388054;6;7
001108;06.01.2020;13:06:22;Stop          ;19.03.2018;FEY;;LION;49;14500;7200;224;14;94;100;8400;;4159;4159;1;13011;28.84;30.14;32,1;BCS1388054;6;7

File: 009512.txt
Serialnumber ; Date ; Time ; Action ; Date of Manufacture ; Manufacturer ; Battery Name ; Device-Chemistry ; Specification-Info ; Design-Capacity [mAh] ; Design-Voltage [mV] ; Battery Status ; Cycle Count ; SOC [%] ; Relativ SOC[%] ; Desired Voltage [mV]; Desired Current [mA]; Cell Voltage 1 [mV] ; Cell Voltage 2 [mV] ; Max_Error [%] ; Busvoltage[mV] ; Battery Temperature [°C] ; Charger Temperature [°C] ; Batterysystem ; Case ; PLace
009512;07.02.2021;08:46:49;Normalcharge  ;04.12.2018;FEY;;LION;49;14500;7200;16576;3;93;96;;;4109;4110;1;13003;23.54;25.44;29,2;BCS1388054;2;16
009512;07.02.2021;11:52:12;Stop          ;04.12.2018;FEY;;LION;49;14500;7200;16576;3;93;96;;;4109;4111;1;13005;25.74;27.04;29,7;BCS1388054;2;16
009512;03.03.2021;08:17:29;Normalcharge  ;04.12.2018;FEY;;LION;49;14500;7200;192;3;82;85;8400;3000;3991;3993;1;13008;23.04;23.04;23,5;BCS1388054;4;17
009512;03.03.2021;10:32:46;Stop          ;04.12.2018;FEY;;LION;49;14500;7200;224;3;96;100;8400;;4158;4162;1;13002;28.14;29.24;32,0;BCS1388054;4;17
009512;04.04.2021;11:50:22;Normalcharge  ;04.12.2018;FEY;;LION;49;14500;7200;192;4;52;55;8400;3000;3696;3697;1;13017;24.94;26.64;27,9;BCS1388054;4;16
009512;04.04.2021;11:51:36;Stop          ;04.12.2018;FEY;;LION;49;14500;7200;128;4;52;55;8400;3000;3785;3739;1;12724;24.94;29.24;28,6;BCS1388054;4;16
009512;05.04.2021;09:38:00;Ladung auf 60% ;04.12.2018;FEY;;LION;49;14500;7200;192;4;52;55;8400;3000;3699;3700;1;13003;25.04;25.04;26,3;BCS1388054;3;16
009512;05.04.2021;10:06:07;Stop           ;04.12.2018;FEY;;LION;49;14500;7200;192;4;56;60;8400;3000;3764;3764;1;13001;27.04;28.64;31,4;BCS1388054;3;16
009512;22.08.2021;11:07:55;Normalcharge  ;04.12.2018;FEY;;LION;49;14500;7200;192;4;43;46;8400;3000;3623;3624;1;12980;22.54;30.44;32,0;BCS1388054;2;7
009512;22.08.2021;11:08:28;Stop          ;04.12.2018;FEY;;LION;49;14500;7200;128;4;43;46;8400;3000;3669;3643;1;12599;22.64;31.54;32,4;BCS1388054;2;7
009512;25.08.2021;08:14:57;Charge to 60% ;04.12.2018;FEY;;LION;49;14500;7200;192;4;43;45;8400;3000;3625;3626;1;12984;30.34;31.94;33,2;BCS1388054;6;18
009512;25.08.2021;09:50:39;Stop          ;04.12.2018;FEY;;LION;49;14500;7200;192;4;56;60;8400;3000;3734;3736;1;12984;33.34;35.04;36,4;BCS1388054;6;18