Folder: Battery_sort_V2/reader/as (part 2)

File: 009518.txt
Serialnumber ; Date ; Time ; Action ; Date of Manufacture ; Manufacturer ; Battery Name ; Device-Chemistry ; Specification-Info ; Design-Capacity [mAh] ; Design-Voltage [mV] ; Battery Status ; Cycle Count ; SOC [%] ; Relativ SOC[%] ; Desired Voltage [mV]; Desired Current [mA]; Cell Voltage 1 [mV] ; Cell Voltage 2 [mV] ; Max_Error [%] ; Busvoltage[mV] ; Battery Temperature [°C] ; Charger Temperature [°C] ; Batterysystem ; Case ; PLace
009518;10.12.2019;15:28:34;Charge to 30% ;03.12.2018;FEY;;LION;49;14500;7200;192;44;93;98;8400;;4109;4109;1;13016;23.24;25.64;27,1;BCS1388054;1;16
009518;10.12.2019;20:42:17;Stop          ;03.12.2018;FEY;;LION;49;14500;7200;192;45;29;30;8400;3000;3548;3547;1;13016;32.34;35.94;34,1;BCS1388054;1;16
009518;11.12.2019;08:48:18;Fastcharge    ;03.12.2018;FEY;;LION;49;14500;7200;192;45;29;30;8400;3000;3566;3566;1;13016;25.74;27.54;31,9;BCS1388054;1;16
009518;11.12.2019;13:40:21;Stop          ;03.12.2018;FEY;;LION;49;14500;7200;224;45;96;100;8400;;4162;4162;1;13017;29.14;29.74;32,4;BCS1388054;1;16
009518;11.12.2019;15:45:57;Charge to 30% ;03.12.2018;FEY;;LION;49;14500;7200;224;45;97;100;8400;;4152;4152;1;13015;26.54;27.74;31,5;BCS1388054;1;16
009518;11.12.2019;15:46:00;Stop          ;03.12.2018;FEY;;LION;49;14500;7200;224;45;97;100;8400;;4152;4151;1;13016;26.54;27.84;31,5;BCS1388054;1;16
009518;11.12.2019;15:46:13;Charge to 10% ;03.12.2018;FEY;;LION;49;14500;7200;224;45;97;100;8400;;4152;4152;1;13016;26.54;27.74;31,5;BCS1388054;1;16
009518;11.12.2019;22:50:20;Stop          ;03.12.2018;FEY;;LION;49;14500;7200;192;46;10;10;8400;3000;3351;3350;1;13016;32.94;32.64;33,4;BCS1388054;1;16
009518;12.12.2019;08:44:40;Normalcharge  ;03.12.2018;FEY;;LION;49;14500;7200;192;46;9;9;8400;3000;3362;3362;1;13016;25.94;27.64;31,9;BCS1388054;1;16
009518;12.12.2019;16:39:22;Stop          ;03.12.2018;FEY;;LION;49;14500;7200;224;46;97;100;8400;;4163;4163;1;13016;28.44;29.54;31,7;BCS1388054;1;16
009518;13.12.2019;10:47:47;Charge to 10% ;03.12.2018;FEY;;LION;49;14500;7200;224;46;97;100;8400;;4147;4147;1;13016;25.94;27.74;32,0;BCS1388054;1;16
009518;13.12.2019;15:41:58;Stop          ;03.12.2018;FEY;;LION;49;14500;7200;192;47;35;37;8400;3000;3503;3553;1;13656;31.94;37.14;34,6;BCS1388054;1;16
009518;13.12.2019;15:42:01;Cycle         ;03.12.2018;FEY;;LION;49;14500;7200;192;47;35;37;8400;3000;3503;3553;1;13015;31.94;37.14;34,6;BCS1388054;1;16
009518;14.12.2019;22:41:25;Stop          ;03.12.2018;FEY;;LION;49;14500;7200;224;48;94;100;8400;;4151;4151;1;13016;26.04;27.64;31,9;BCS1388054;1;16
009518;16.12.2019;07:43:03;Charge to 10% ;03.12.2018;FEY;;LION;49;14500;7200;224;48;94;100;8400;;4145;4145;1;13016;25.64;27.04;31,9;BCS1388054;1;16
009518;16.12.2019;14:36:13;Stop          ;03.12.2018;FEY;;LION;49;14500;7200;192;49;10;10;8400;3000;3364;3364;1;13016;31.84;31.84;32,4;BCS1388054;1;16
009518;16.12.2019;14:44:00;Charge to 90% ;03.12.2018;FEY;;LION;49;14500;7200;192;49;10;10;8400;3000;3367;3367;1;13018;31.24;30.24;31,7;BCS1388054;1;16
009518;16.12.2019;20:50:03;Stop          ;03.12.2018;FEY;;LION;49;14500;7200;192;49;85;90;8400;3000;4066;4067;1;13017;30.84;31.54;31,7;BCS1388054;1;16
009518;17.12.2019;08:37:37;Fastcharge    ;03.12.2018;FEY;;LION;49;14500;7200;192;49;86;90;8400;3000;4050;4050;1;13017;25.74;27.44;31,6;BCS1388054;1;16
009518;17.12.2019;10:31:11;Stop          ;03.12.2018;FEY;;LION;49;14500;7200;224;49;96;100;8400;;4160;4161;1;13016;27.14;28.44;31,4;BCS1388054;1;16
009518;17.12.2019;13:38:19;Charge to 10% ;03.12.2018;FEY;;LION;49;14500;7200;224;49;96;100;8400;;4149;4149;1;13016;26.04;27.44;30,8;BCS1388054;1;16
009518;17.12.2019;20:33:50;Stop          ;03.12.2018;FEY;;LION;49;14500;7200;192;50;10;10;8400;3000;3360;3360;1;13017;33.04;33.14;34,2;BCS1388054;1;16
009518;18.12.2019;08:31:14;Fastcharge    ;03.12.2018;FEY;;LION;49;14500;7200;192;50;10;10;8400;3000;3372;3372;1;13015;25.84;27.54;31,6;BCS1388054;1;16
009518;18.12.2019;14:28:33;Stop          ;03.12.2018;FEY;;LION;49;14500;7200;224;50;96;100;8400;;4162;4162;1;13016;29.14;29.54;31,9;BCS1388054;1;16
009518;19.12.2019;08:23:45;Charge to 60% ;03.12.2018;FEY;;LION;49;14500;7200;224;50;97;100;8400;;4148;4148;1;13016;25.74;27.44;31,5;BCS1388054;1;16
009518;19.12.2019;11:29:32;Stop          ;03.12.2018;FEY;;LION;49;14500;7200;192;51;58;60;8400;3000;3673;3723;1;13016;32.74;37.04;34,9;BCS1388054;1;16
009518;19.12.2019;12:16:33;Cycle         ;03.12.2018;FEY;;LION;49;14500;7200;192;51;58;60;8400;3000;3775;3775;1;13015;29.44;29.44;32,7;BCS1388054;1;16
009518;20.12.2019;17:26:19;Stop          ;03.12.2018;FEY;;LION;49;14500;7200;224;52;94;100;8400;;4151;4151;1;13017;26.04;27.34;31,2;BCS1388054;1;16
009518;06.01.2020;06:34:38;Charge to 60% ;03.12.2018;FEY;;LION;49;14500;7200;192;52;93;98;8400;;4122;4121;1;13016;25.84;27.44;31,9;BCS1388054;1;16
009518;06.01.2020;09:30:30;Stop          ;03.12.2018;FEY;;LION;49;14500;7200;192;53;57;60;8400;3000;3769;3769;1;13017;31.94;32.84;33,9;BCS1388054;1;16
009518;06.01.2020;09:50:27;Fastcharge    ;03.12.2018;FEY;;LION;49;14500;7200;192;53;57;60;8400;3000;3780;3780;1;13018;30.44;29.94;32,6;BCS1388054;1;16
009518;06.01.2020;13:07:36;Stop          ;03.12.2018;FEY;;LION;49;14500;7200;224;53;95;100;8400;;4163;4164;1;13018;28.74;29.54;31,7;BCS1388054;1;16

File: 009521.txt
Serialnumber ; Date ; Time ; Action ; Date of Manufacture ; Manufacturer ; Battery Name ; Device-Chemistry ; Specification-Info ; Design-Capacity [mAh] ; Design-Voltage [mV] ; Battery Status ; Cycle Count ; SOC [%] ; Relativ SOC[%] ; Desired Voltage [mV]; Desired Current [mA]; Cell Voltage 1 [mV] ; Cell Voltage 2 [mV] ; Max_Error [%] ; Busvoltage[mV] ; Battery Temperature [°C] ; Charger Temperature [°C] ; Batterysystem ; Case ; PLace
009521;10.12.2019;15:28:41;Charge to 30% ;04.12.2018;FEY;;LION;49;14500;7200;224;49;93;100;8400;;4133;4132;1;12999;22.84;24.74;27,1;BCS1388054;2;15
009521;10.12.2019;20:48:37;Stop          ;04.12.2018;FEY;;LION;49;14500;7200;192;50;28;30;8400;3000;3560;3558;1;12996;34.04;35.14;33,2;BCS1388054;2;15
009521;11.12.2019;08:48:24;Fastcharge    ;04.12.2018;FEY;;LION;49;14500;7200;192;50;28;30;8400;3000;3569;3567;1;12998;26.34;28.44;31,9;BCS1388054;2;15
009521;11.12.2019;13:39:47;Stop          ;04.12.2018;FEY;;LION;49;14500;7200;224;50;94;100;8400;;4161;4158;1;12998;31.04;31.54;32,5;BCS1388054;2;15
009521;11.12.2019;15:46:18;Charge to 10% ;04.12.2018;FEY;;LION;49;14500;7200;224;50;95;100;8400;;4153;4151;1;12998;27.34;29.04;31,4;BCS1388054;2;15
009521;11.12.2019;22:49:04;Stop          ;04.12.2018;FEY;;LION;49;14500;7200;192;51;10;10;8400;3000;3355;3352;1;12997;34.94;35.74;33,6;BCS1388054;2;15
009521;12.12.2019;08:44:52;Normalcharge  ;04.12.2018;FEY;;LION;49;14500;7200;192;51;9;10;8400;3000;3364;3362;1;12998;26.54;28.64;31,9;BCS1388054;2;15
009521;12.12.2019;16:40:06;Stop          ;04.12.2018;FEY;;LION;49;14500;7200;224;51;95;100;8400;;4161;4160;1;12998;29.84;31.04;31,7;BCS1388054;2;15
009521;13.12.2019;10:47:50;Charge to 10% ;04.12.2018;FEY;;LION;49;14500;7200;224;51;95;100;8400;;4149;4148;1;12999;26.54;28.64;32,0;BCS1388054;2;15
009521;13.12.2019;15:42:08;Cycle         ;04.12.2018;FEY;;LION;49;14500;7200;192;52;34;36;8400;3000;3500;3548;1;13564;33.74;41.24;34,6;BCS1388054;2;15
009521;13.12.2019;15:42:08;Stop          ;04.12.2018;FEY;;LION;49;14500;7200;192;52;34;36;8400;3000;3500;3548;1;13564;33.74;41.24;34,6;BCS1388054;2;15
009521;14.12.2019;22:48:51;Stop          ;04.12.2018;FEY;;LION;49;14500;7200;224;53;93;99;8400;;4152;4149;1;12997;26.74;28.64;32,0;BCS1388054;2;15
009521;16.12.2019;07:43:06;Charge to 10% ;04.12.2018;FEY;;LION;49;14500;7200;224;53;93;100;8400;;4146;4143;1;12999;26.24;28.14;31,9;BCS1388054;2;15
009521;16.12.2019;14:37:54;Stop          ;04.12.2018;FEY;;LION;49;14500;7200;192;54;10;10;8400;3000;3366;3363;1;12999;33.44;34.04;32,4;BCS1388054;2;15
009521;16.12.2019;14:44:03;Charge to 90% ;04.12.2018;FEY;;LION;49;14500;7200;192;54;10;10;8400;3000;3368;3365;1;12999;32.94;32.64;31,9;BCS1388054;2;15
009521;16.12.2019;20:51:09;Stop          ;04.12.2018;FEY;;LION;49;14500;7200;192;54;84;90;8400;3000;4054;4053;1;13000;32.54;33.04;31,6;BCS1388054;2;15
009521;17.12.2019;08:37:41;Fastcharge    ;04.12.2018;FEY;;LION;49;14500;7200;192;54;84;90;8400;3000;4046;4044;1;12997;26.34;28.44;31,6;BCS1388054;2;15
009521;17.12.2019;10:30:36;Stop          ;04.12.2018;FEY;;LION;49;14500;7200;224;54;94;100;8400;;4162;4162;1;12999;28.34;31.04;31,5;BCS1388054;2;15
009521;17.12.2019;13:38:22;Charge to 10% ;04.12.2018;FEY;;LION;49;14500;7200;224;54;94;100;8400;;4150;4149;1;12998;26.74;28.64;30,8;BCS1388054;2;15
009521;17.12.2019;20:36:00;Stop          ;04.12.2018;FEY;;LION;49;14500;7200;192;55;10;10;8400;3000;3364;3362;1;12998;34.74;35.24;33,6;BCS1388054;2;15
009521;18.12.2019;08:31:17;Fastcharge    ;04.12.2018;FEY;;LION;49;14500;7200;192;55;10;10;8400;3000;3373;3371;1;12998;26.44;28.54;31,6;BCS1388054;2;15
009521;18.12.2019;14:28:27;Stop          ;04.12.2018;FEY;;LION;49;14500;7200;224;55;94;100;8400;;4160;4162;1;12998;31.04;31.54;32,0;BCS1388054;2;15
009521;19.12.2019;08:23:50;Charge to 60% ;04.12.2018;FEY;;LION;49;14500;7200;224;55;95;100;8400;;4149;4150;1;12999;26.34;28.44;31,5;BCS1388054;2;15
009521;19.12.2019;11:32:11;Stop          ;04.12.2018;FEY;;LION;49;14500;7200;192;56;57;60;8400;3000;3766;3765;1;12998;34.44;35.94;34,0;BCS1388054;2;15
009521;19.12.2019;12:16:37;Cycle         ;04.12.2018;FEY;;LION;49;14500;7200;192;56;57;60;8400;3000;3774;3773;1;12999;31.34;31.14;32,7;BCS1388054;2;15
009521;20.12.2019;17:35:47;Stop          ;04.12.2018;FEY;;LION;49;14500;7200;224;57;93;100;8400;;4151;4149;1;13000;26.74;28.44;31,1;BCS1388054;2;15
009521;06.01.2020;06:34:42;Charge to 60% ;04.12.2018;FEY;;LION;49;14500;7200;224;57;92;99;8400;;4123;4121;1;12999;26.44;28.44;31,9;BCS1388054;2;15
009521;06.01.2020;09:32:11;Stop          ;04.12.2018;FEY;;LION;49;14500;7200;192;58;56;60;8400;3000;3769;3765;1;12999;33.64;35.04;33,2;BCS1388054;2;15
009521;06.01.2020;09:50:30;Fastcharge    ;04.12.2018;FEY;;LION;49;14500;7200;192;58;56;60;8400;3000;3775;3771;1;12999;32.34;32.04;32,7;BCS1388054;2;15
009521;06.01.2020;13:08:34;Stop          ;04.12.2018;FEY;;LION;49;14500;7200;224;58;93;100;8400;;4160;4159;1;13000;30.44;31.04;31,6;BCS1388054;2;15

File: 009551.txt
Serialnumber ; Date ; Time ; Action ; Date of Manufacture ; Manufacturer ; Battery Name ; Device-Chemistry ; Specification-Info ; Design-Capacity [mAh] ; Design-Voltage [mV] ; Battery Status ; Cycle Count ; SOC [%] ; Relativ SOC[%] ; Desired Voltage [mV]; Desired Current [mA]; Cell Voltage 1 [mV] ; Cell Voltage 2 [mV] ; Max_Error [%] ; Busvoltage[mV] ; Battery Temperature [°C] ; Charger Temperature [°C] ; Batterysystem ; Case ; PLace
009551;12.01.2021;04:17:22;Charge to 90% ;03.12.2018;FEY;;LION;49;14500;7200;16576;5;97;98;;;4129;4128;1;13009;22.94;23.84;23,5;BCS1388054;2;8
009551;12.01.2021;04:54:21;Stop          ;03.12.2018;FEY;;LION;49;14500;7200;192;5;90;90;8400;3000;4048;4046;1;13001;26.34;31.64;31,9;BCS1388054;2;8
009551;12.01.2021;05:21:40;Cycle         ;03.12.2018;FEY;;LION;49;14500;7200;192;5;90;90;8400;3000;4060;4059;1;13002;26.74;28.74;30,6;BCS1388054;2;8
009551;13.01.2021;08:20:19;Stop          ;03.12.2018;FEY;;LION;49;14500;7200;224;6;97;100;8400;;4156;4156;1;13002;27.04;28.54;30,8;BCS1388054;2;8
009551;21.02.2021;13:44:56;Normalcharge  ;03.12.2018;FEY;;LION;49;14500;7200;192;7;64;66;8400;3000;3814;3813;1;13001;22.74;23.74;27,7;BCS1388054;5;7
009551;21.02.2021;19:31:36;Stop          ;03.12.2018;FEY;;LION;49;14500;7200;224;7;98;100;8400;;4154;4152;1;12998;27.14;29.14;30,6;BCS1388054;5;7
009551;06.04.2021;08:39:16;Normalcharge  ;03.12.2018;FEY;;LION;49;14500;7200;224;7;96;99;8400;;4130;4128;1;13002;21.04;25.64;28,1;BCS1388054;6;14
009551;06.04.2021;08:40:04;Stop          ;03.12.2018;FEY;;LION;49;14500;7200;224;7;96;99;8400;;4130;4128;1;12968;21.04;25.94;28,5;BCS1388054;6;14
009551;08.04.2021;07:58:44;Normalcharge  ;03.12.2018;FEY;;LION;49;14500;7200;224;7;96;99;8400;;4129;4128;1;13000;24.94;25.04;26,4;BCS1388054;6;14
009551;08.04.2021;07:59:23;Stop          ;03.12.2018;FEY;;LION;49;14500;7200;224;7;96;99;8400;;4129;4128;1;12999;25.04;25.64;26,7;BCS1388054;6;14
009551;08.04.2021;10:36:16;Normalcharge  ;03.12.2018;FEY;;LION;49;14500;7200;224;7;96;99;8400;;4129;4128;1;13003;25.24;26.34;28,6;BCS1388054;6;14
009551;08.04.2021;10:37:11;Stop          ;03.12.2018;FEY;;LION;49;14500;7200;224;7;96;99;8400;;4129;4128;1;12970;25.24;26.74;29,2;BCS1388054;6;14
009551;18.04.2021;08:34:33;Normalcharge  ;03.12.2018;FEY;;LION;49;14500;7200;224;7;96;99;8400;;4126;4124;1;12998;25.94;27.14;28,2;BCS1388054;6;14
009551;18.04.2021;08:34:41;Stop          ;03.12.2018;FEY;;LION;49;14500;7200;224;7;96;99;8400;;4126;4124;1;12995;25.94;27.34;28,2;BCS1388054;6;14
009551;04.08.2021;07:24:35;Normalcharge  ;03.12.2018;FEY;;LION;49;14500;7200;192;7;94;96;8400;;4096;4094;1;12994;29.94;30.74;31,5;BCS1388054;6;14
009551;04.08.2021;07:25:17;Stop          ;03.12.2018;FEY;;LION;49;14500;7200;192;7;94;96;8400;;4095;4094;1;12971;29.94;31.04;31,6;BCS1388054;6;14
009551;22.08.2021;11:07:59;Normalcharge  ;03.12.2018;FEY;;LION;49;14500;7200;192;7;74;77;8400;3000;3907;3906;1;12998;22.84;29.64;32,1;BCS1388054;3;10
009551;22.08.2021;11:08:33;Stop           ;03.12.2018;FEY;;LION;49;14500;7200;128;7;74;77;8400;3000;3968;3934;1;12681;22.84;30.94;32,4;BCS1388054;3;10

File: 009566.txt
Serialnumber ; Date ; Time ; Action ; Date of Manufacture ; Manufacturer ; Battery Name ; Device-Chemistry ; Specification-Info ; Design-Capacity [mAh] ; Design-Voltage [mV] ; Battery Status ; Cycle Count ; SOC [%] ; Relativ SOC[%] ; Desired Voltage [mV]; Desired Current [mA]; Cell Voltage 1 [mV] ; Cell Voltage 2 [mV] ; Max_Error [%] ; Busvoltage[mV] ; Battery Temperature [°C] ; Charger Temperature [°C] ; Batterysystem ; Case ; PLace
009566;10.12.2019;15:29:01;Charge to 30% ;04.12.2018;FEY;;LION;49;14500;7200;224;48;93;100;8400;;4131;4131;1;13007;22.64;24.44;27,1;BCS1388054;5;14
009566;10.12.2019;20:48:54;Stop          ;04.12.2018;FEY;;LION;49;14500;7200;192;49;28;30;8400;3000;3560;3559;1;13000;33.94;35.14;33,1;BCS1388054;5;14
009566;11.12.2019;08:48:53;Fastcharge    ;04.12.2018;FEY;;LION;49;14500;7200;192;49;28;30;8400;3000;3568;3567;1;13003;26.74;28.44;31,9;BCS1388054;5;14
009566;11.12.2019;13:40:11;Stop          ;04.12.2018;FEY;;LION;49;14500;7200;224;49;94;100;8400;;4161;4163;1;13002;30.84;31.64;32,4;BCS1388054;5;14
009566;11.12.2019;15:46:40;Charge to 10% ;04.12.2018;FEY;;LION;49;14500;7200;224;49;95;100;8400;;4154;4154;1;13002;27.54;28.94;31,4;BCS1388054;5;14
009566;11.12.2019;22:49:07;Stop          ;04.12.2018;FEY;;LION;49;14500;7200;192;50;10;10;8400;3000;3359;3357;1;13001;34.84;35.54;33,5;BCS1388054;5;14
009566;12.12.2019;08:45:10;Normalcharge  ;04.12.2018;FEY;;LION;49;14500;7200;192;50;9;9;8400;3000;3368;3366;1;13003;26.84;28.64;31,7;BCS1388054;5;14
009566;12.12.2019;16:41:20;Stop          ;04.12.2018;FEY;;LION;49;14500;7200;224;50;95;100;8400;;4160;4161;1;13002;29.84;30.84;31,6;BCS1388054;5;14
009566;13.12.2019;10:48:05;Charge to 10% ;04.12.2018;FEY;;LION;49;14500;7200;224;50;95;100;8400;;4149;4149;1;13002;26.94;28.64;32,0;BCS1388054;5;14
009566;13.12.2019;15:40:55;Stop          ;04.12.2018;FEY;;LION;49;14500;7200;192;50;34;36;8400;3000;3501;3551;1;13508;33.64;41.74;34,6;BCS1388054;5;14
009566;13.12.2019;15:41:42;Cycle         ;04.12.2018;FEY;;LION;49;14500;7200;192;50;34;36;8400;3000;3583;3582;1;13000;33.64;39.24;34,5;BCS1388054;5;14
009566;14.12.2019;22:39:35;Stop          ;04.12.2018;FEY;;LION;49;14500;7200;224;52;93;100;8400;;4151;4148;1;13003;26.94;28.54;31,7;BCS1388054;5;14
009566;16.12.2019;07:43:20;Charge to 10% ;04.12.2018;FEY;;LION;49;14500;7200;224;52;93;100;8400;;4145;4142;1;13004;26.74;27.94;31,9;BCS1388054;5;14
009566;16.12.2019;14:34:29;Stop          ;04.12.2018;FEY;;LION;49;14500;7200;192;53;10;10;8400;3000;3368;3365;1;13002;33.14;34.54;32,5;BCS1388054;5;14
009566;16.12.2019;14:44:17;Charge to 90% ;04.12.2018;FEY;;LION;49;14500;7200;192;53;10;10;8400;3000;3370;3367;1;13003;32.34;31.74;31,9;BCS1388054;5;14
009566;16.12.2019;20:48:55;Stop          ;04.12.2018;FEY;;LION;49;14500;7200;192;53;84;90;8400;3000;4055;4055;1;13004;32.74;33.94;31,9;BCS1388054;5;14
009566;17.12.2019;08:37:54;Fastcharge    ;04.12.2018;FEY;;LION;49;14500;7200;192;53;84;90;8400;3000;4046;4045;1;13003;26.84;28.44;31,6;BCS1388054;5;14
009566;17.12.2019;10:33:46;Stop          ;04.12.2018;FEY;;LION;49;14500;7200;224;53;94;100;8400;;4159;4159;1;13003;28.74;30.04;31,1;BCS1388054;5;14
009566;17.12.2019;10:33:46;Stop          ;04.12.2018;FEY;;LION;49;14500;7200;224;53;94;100;8400;;4159;4159;1;13003;28.74;30.04;31,1;BCS1388054;5;14
009566;17.12.2019;13:38:36;Charge to 10% ;04.12.2018;FEY;;LION;49;14500;7200;224;53;94;100;8400;;4150;4149;1;13004;27.14;28.54;30,8;BCS1388054;5;14
009566;17.12.2019;20:33:18;Stop          ;04.12.2018;FEY;;LION;49;14500;7200;192;54;10;10;8400;3000;3363;3361;1;13001;34.94;36.14;34,5;BCS1388054;5;14
009566;18.12.2019;08:31:30;Fastcharge    ;04.12.2018;FEY;;LION;49;14500;7200;192;54;10;10;8400;3000;3373;3372;1;13003;26.94;28.64;31,6;BCS1388054;5;14
009566;18.12.2019;14:29:28;Stop          ;04.12.2018;FEY;;LION;49;14500;7200;224;54;94;100;8400;;4161;4164;1;13003;30.94;31.44;31,7;BCS1388054;5;14
009566;19.12.2019;08:24:02;Charge to 60% ;04.12.2018;FEY;;LION;49;14500;7200;224;54;95;100;8400;;4150;4151;1;13003;26.84;28.44;31,5;BCS1388054;5;14
009566;19.12.2019;11:31:09;Stop          ;04.12.2018;FEY;;LION;49;14500;7200;192;54;57;60;8400;3000;3772;3772;1;13000;34.44;36.14;34,4;BCS1388054;5;14
009566;19.12.2019;12:16:49;Cycle         ;04.12.2018;FEY;;LION;49;14500;7200;192;54;57;60;8400;3000;3780;3782;1;13003;31.14;31.04;32,7;BCS1388054;5;14
009566;20.12.2019;17:27:50;Stop          ;04.12.2018;FEY;;LION;49;14500;7200;224;56;93;100;8400;;4153;4151;1;13004;27.34;28.64;31,0;BCS1388054;5;14
009566;06.01.2020;06:34:55;Charge to 60% ;04.12.2018;FEY;;LION;49;14500;7200;192;56;92;98;8400;;4123;4122;1;13004;27.14;28.64;31,9;BCS1388054;5;14
009566;06.01.2020;09:30:26;Stop          ;04.12.2018;FEY;;LION;49;14500;7200;192;56;56;60;8400;3000;3775;3773;1;13001;33.64;35.74;33,9;BCS1388054;5;14
009566;06.01.2020;09:50:42;Fastcharge    ;04.12.2018;FEY;;LION;49;14500;7200;192;56;56;60;8400;3000;3782;3781;1;13004;32.14;31.74;32,7;BCS1388054;5;14
009566;06.01.2020;13:09:56;Stop          ;04.12.2018;FEY;;LION;49;14500;7200;224;56;94;100;8400;;4159;4158;1;13004;30.34;30.84;31,4;BCS1388054;5;14

File: 009580.txt
Serialnumber ; Date ; Time ; Action ; Date of Manufacture ; Manufacturer ; Battery Name ; Device-Chemistry ; Specification-Info ; Design-Capacity [mAh] ; Design-Voltage [mV] ; Battery Status ; Cycle Count ; SOC [%] ; Relativ SOC[%] ; Desired Voltage [mV]; Desired Current [mA]; Cell Voltage 1 [mV] ; Cell Voltage 2 [mV] ; Max_Error [%] ; Busvoltage[mV] ; Battery Temperature [°C] ; Charger Temperature [°C] ; Batterysystem ; Case ; PLace
009580;12.01.2021;04:17:22;Charge to 90% ;04.12.2018;FEY;;LION;49;14500;7200;192;2;93;95;8400;3000;4104;4103;1;13000;23.24;23.24;23,5;BCS1388054;2;13
009580;12.01.2021;04:54:21;Stop          ;04.12.2018;FEY;;LION;49;14500;7200;192;2;89;90;8400;3000;4057;4056;1;12992;26.34;30.34;31,9;BCS1388054;2;13
009580;12.01.2021;05:21:40;Cycle         ;04.12.2018;FEY;;LION;49;14500;7200;192;2;89;90;8400;3000;4059;4059;1;12994;26.94;28.34;30,6;BCS1388054;2;13
009580;13.01.2021;08:20:19;Stop          ;04.12.2018;FEY;;LION;49;14500;7200;224;4;97;100;8400;;4157;4156;1;12993;27.14;28.24;30,8;BCS1388054;2;13
009580;21.02.2021;13:43:49;Normalcharge  ;04.12.2018;FEY;;LION;49;14500;7200;192;4;59;61;8400;3000;3749;3744;1;13015;23.04;22.44;27,7;BCS1388054;3;17
009580;21.02.2021;20:44:52;Stop           ;04.12.2018;FEY;;LION;49;14500;7200;224;4;97;100;8400;;4153;4151;1;13010;26.74;27.24;31,2;BCS1388054;3;17
009580;06.04.2021;08:39:03;Normalcharge  ;04.12.2018;FEY;;LION;49;14500;7200;224;4;95;99;8400;;4128;4126;1;12995;21.94;25.64;28,1;BCS1388054;4;2
009580;06.04.2021;08:39:53;Stop          ;04.12.2018;FEY;;LION;49;14500;7200;224;4;95;99;8400;;4128;4126;1;12993;22.04;26.24;28,4;BCS1388054;4;2
009580;08.04.2021;07:58:12;Normalcharge  ;04.12.2018;FEY;;LION;49;14500;7200;224;4;95;99;8400;;4128;4126;1;12995;25.34;22.54;26,3;BCS1388054;4;2
009580;08.04.2021;07:59:34;Stop          ;04.12.2018;FEY;;LION;49;14500;7200;224;4;95;99;8400;;4127;4125;1;12976;25.34;26.64;26,7;BCS1388054;4;2
009580;08.04.2021;10:36:07;Normalcharge  ;04.12.2018;FEY;;LION;49;14500;7200;224;4;95;99;8400;;4127;4126;1;12994;25.54;26.74;28,5;BCS1388054;4;2
009580;08.04.2021;10:37:03;Stop          ;04.12.2018;FEY;;LION;49;14500;7200;224;4;95;99;8400;;4127;4125;1;12973;25.54;27.24;29,0;BCS1388054;4;2
009580;18.04.2021;08:34:04;Normalcharge  ;04.12.2018;FEY;;LION;49;14500;7200;224;4;95;99;8400;;4124;4122;1;12993;26.24;27.64;27,9;BCS1388054;4;2
009580;18.04.2021;08:34:10;Stop          ;04.12.2018;FEY;;LION;49;14500;7200;224;4;95;99;8400;;4124;4122;1;12993;26.24;27.64;28,1;BCS1388054;4;2
009580;04.08.2021;07:24:46;Normalcharge  ;04.12.2018;FEY;;LION;49;14500;7200;192;4;93;96;8400;;4092;4090;1;12991;30.34;31.34;31,5;BCS1388054;4;2
009580;04.08.2021;07:25:30;Stop          ;04.12.2018;FEY;;LION;49;14500;7200;192;4;93;96;8400;;4092;4090;1;12969;30.44;31.84;31,7;BCS1388054;4;2
009580;22.08.2021;11:37:17;Normalcharge  ;04.12.2018;FEY;;LION;49;14500;7200;192;4;93;96;8400;;4087;4085;1;12979;22.34;27.74;31,9;BCS1388054;6;16
009580;22.08.2021;11:37:57;Stop          ;04.12.2018;FEY;;LION;49;14500;7200;192;4;93;96;8400;;4087;4085;1;12832;22.34;27.94;32,0;BCS1388054;6;16

File: 009599.txt
Serialnumber ; Date ; Time ; Action ; Date of Manufacture ; Manufacturer ; Battery Name ; Device-Chemistry ; Specification-Info ; Design-Capacity [mAh] ; Design-Voltage [mV] ; Battery Status ; Cycle Count ; SOC [%] ; Relativ SOC[%] ; Desired Voltage [mV]; Desired Current [mA]; Cell Voltage 1 [mV] ; Cell Voltage 2 [mV] ; Max_Error [%] ; Busvoltage[mV] ; Battery Temperature [°C] ; Charger Temperature [°C] ; Batterysystem ; Case ; PLace
009599;07.12.2020;04:14:28;Cycle         ;04.12.2018;FEY;;LION;49;14500;7200;192;2;95;98;8400;;4137;4139;1;13003;25.64;27.24;30,3;BCS1388054;4;17
009599;08.12.2020;16:19:56;Stop          ;04.12.2018;FEY;;LION;49;14500;7200;192;2;95;98;8400;;4135;4137;1;13003;27.64;28.74;31,9;BCS1388054;4;17
009599;12.01.2021;04:17:33;Charge to 90% ;04.12.2018;FEY;;LION;49;14500;7200;192;2;94;97;8400;;4122;4124;1;13021;23.04;24.24;23,6;BCS1388054;4;16
009599;12.01.2021;04:57:16;Stop          ;04.12.2018;FEY;;LION;49;14500;7200;192;2;88;90;8400;3000;4061;4062;1;13016;26.54;29.44;31,6;BCS1388054;4;16
009599;12.01.2021;05:21:49;Cycle         ;04.12.2018;FEY;;LION;49;14500;7200;192;2;88;90;8400;3000;4064;4065;1;13016;26.84;28.34;30,4;BCS1388054;4;16
009599;13.01.2021;08:19:19;Stop          ;04.12.2018;FEY;;LION;49;14500;7200;224;3;97;100;8400;;4155;4157;1;13017;27.14;28.44;30,7;BCS1388054;4;16
009599;21.02.2021;13:43:32;Normalcharge  ;04.12.2018;FEY;;LION;49;14500;7200;192;4;57;59;8400;3000;3733;3738;1;13002;23.24;25.94;27,5;BCS1388054;2;2
009599;21.02.2021;19:27:00;Stop          ;04.12.2018;FEY;;LION;49;14500;7200;224;4;97;100;8400;;4154;4155;1;13001;26.94;29.04;31,1;BCS1388054;2;2
009599;06.04.2021;08:39:10;Normalcharge  ;04.12.2018;FEY;;LION;49;14500;7200;224;4;95;99;8400;;4129;4129;1;13006;21.44;25.04;28,1;BCS1388054;5;14
009599;06.04.2021;08:39:58;Stop          ;04.12.2018;FEY;;LION;49;14500;7200;224;4;95;99;8400;;4129;4129;1;13006;21.44;25.34;28,4;BCS1388054;5;14
009599;08.04.2021;07:58:30;Normalcharge  ;04.12.2018;FEY;;LION;49;14500;7200;224;4;95;99;8400;;4128;4129;1;13003;25.14;25.14;26,4;BCS1388054;5;14
009599;08.04.2021;07:59:28;Stop          ;04.12.2018;FEY;;LION;49;14500;7200;224;4;95;99;8400;;4128;4129;1;13002;25.14;25.64;26,7;BCS1388054;5;14
009599;08.04.2021;10:36:12;Normalcharge  ;04.12.2018;FEY;;LION;49;14500;7200;224;4;95;99;8400;;4128;4128;1;13002;25.34;25.94;28,6;BCS1388054;5;14
009599;08.04.2021;10:37:06;Stop          ;04.12.2018;FEY;;LION;49;14500;7200;224;4;95;99;8400;;4128;4128;1;13001;25.34;26.34;29,0;BCS1388054;5;14
009599;18.04.2021;08:34:16;Normalcharge  ;04.12.2018;FEY;;LION;49;14500;7200;192;4;95;98;8400;;4124;4125;1;13005;26.04;26.74;28,1;BCS1388054;5;14
009599;18.04.2021;08:34:27;Stop          ;04.12.2018;FEY;;LION;49;14500;7200;192;4;95;98;8400;;4125;4125;1;13005;26.04;26.84;28,2;BCS1388054;5;14
009599;04.08.2021;07:24:41;Normalcharge  ;04.12.2018;FEY;;LION;49;14500;7200;192;4;93;96;8400;;4093;4093;1;12997;30.14;30.64;31,5;BCS1388054;5;14
009599;04.08.2021;07:25:23;Stop          ;04.12.2018;FEY;;LION;49;14500;7200;192;4;93;96;8400;;4093;4093;1;12995;30.14;30.94;31,6;BCS1388054;5;14
009599;22.08.2021;11:37:17;Normalcharge  ;04.12.2018;FEY;;LION;49;14500;7200;192;4;91;95;8400;3000;4089;4089;1;12999;22.84;29.14;31,9;BCS1388054;6;9
009599;22.08.2021;11:37:57;Stop          ;04.12.2018;FEY;;LION;49;14500;7200;128;4;91;95;8400;3000;4121;4106;1;12857;22.94;30.34;32,0;BCS1388054;6;9