Folder: Battery_sort_V2/reader/as (part 3)

File: 009614.txt
Serialnumber ; Date ; Time ; Action ; Date of Manufacture ; Manufacturer ; Battery Name ; Device-Chemistry ; Specification-Info ; Design-Capacity [mAh] ; Design-Voltage [mV] ; Battery Status ; Cycle Count ; SOC [%] ; Relativ SOC[%] ; Desired Voltage [mV]; Desired Current [mA]; Cell Voltage 1 [mV] ; Cell Voltage 2 [mV] ; Max_Error [%] ; Busvoltage[mV] ; Battery Temperature [°C] ; Charger Temperature [°C] ; Batterysystem ; Case ; PLace
009614;10.12.2019;15:28:54;Charge to 30% ;03.12.2018;FEY;;LION;49;14500;7200;224;45;94;100;8400;;4130;4130;1;13002;22.64;24.24;27,1;BCS1388054;4;11
009614;10.12.2019;20:47:57;Stop          ;03.12.2018;FEY;;LION;49;14500;7200;192;46;29;30;8400;3000;3548;3548;1;13002;33.64;34.64;33,4;BCS1388054;4;11
009614;11.12.2019;08:48:41;Fastcharge    ;03.12.2018;FEY;;LION;49;14500;7200;192;46;29;30;8400;3000;3567;3567;1;13002;26.54;27.44;31,9;BCS1388054;4;11
009614;11.12.2019;13:42:44;Stop          ;03.12.2018;FEY;;LION;49;14500;7200;224;46;96;100;8400;;4162;4162;1;13002;30.04;28.84;31,9;BCS1388054;4;11
009614;11.12.2019;15:46:31;Charge to 10% ;03.12.2018;FEY;;LION;49;14500;7200;224;46;97;100;8400;;4154;4154;1;13001;27.24;27.34;31,4;BCS1388054;4;11
009614;11.12.2019;22:50:44;Stop          ;03.12.2018;FEY;;LION;49;14500;7200;192;47;10;10;8400;3000;3251;3303;1;13002;34.44;35.04;33,2;BCS1388054;4;11
009614;12.12.2019;08:45:03;Normalcharge  ;03.12.2018;FEY;;LION;49;14500;7200;192;47;9;9;8400;3000;3361;3361;1;13001;26.64;27.34;31,9;BCS1388054;4;11
009614;12.12.2019;16:41:48;Stop          ;03.12.2018;FEY;;LION;49;14500;7200;224;47;97;100;8400;;4163;4164;1;13002;29.24;28.74;31,5;BCS1388054;4;11
009614;13.12.2019;10:48:01;Charge to 10% ;03.12.2018;FEY;;LION;49;14500;7200;224;47;97;100;8400;;4149;4149;1;13002;26.64;27.64;32,0;BCS1388054;4;11
009614;13.12.2019;15:42:25;Stop          ;03.12.2018;FEY;;LION;49;14500;7200;192;48;36;37;8400;3000;3506;3557;1;13507;32.84;36.04;34,6;BCS1388054;4;11
009614;13.12.2019;15:42:27;Cycle         ;03.12.2018;FEY;;LION;49;14500;7200;192;48;36;37;8400;3000;3506;3557;1;13507;32.84;36.04;34,6;BCS1388054;4;11
009614;14.12.2019;22:44:28;Stop          ;03.12.2018;FEY;;LION;49;14500;7200;224;49;94;100;8400;;4152;4152;1;13001;26.74;27.64;32,0;BCS1388054;4;11
009614;16.12.2019;07:43:14;Charge to 10% ;03.12.2018;FEY;;LION;49;14500;7200;224;49;95;100;8400;;4146;4145;1;13001;26.44;26.94;31,9;BCS1388054;4;11
009614;16.12.2019;14:36:44;Stop          ;03.12.2018;FEY;;LION;49;14500;7200;192;50;10;10;8400;3000;3265;3317;1;13002;32.84;33.74;32,4;BCS1388054;4;11
009614;16.12.2019;14:44:13;Charge to 90% ;03.12.2018;FEY;;LION;49;14500;7200;192;50;10;10;8400;3000;3364;3364;1;13001;32.24;29.64;31,7;BCS1388054;4;11
009614;16.12.2019;20:50:27;Stop          ;03.12.2018;FEY;;LION;49;14500;7200;128;50;86;90;8400;3000;4073;4075;1;13002;31.84;32.84;31,6;BCS1388054;4;11
009614;17.12.2019;08:37:49;Fastcharge    ;03.12.2018;FEY;;LION;49;14500;7200;192;50;86;90;8400;3000;4048;4048;1;13003;26.54;27.34;31,6;BCS1388054;4;11
009614;17.12.2019;10:31:06;Stop          ;03.12.2018;FEY;;LION;49;14500;7200;224;50;96;100;8400;;4161;4162;1;13003;28.14;28.04;31,4;BCS1388054;4;11
009614;17.12.2019;13:38:32;Charge to 10% ;03.12.2018;FEY;;LION;49;14500;7200;224;50;96;100;8400;;4151;4151;1;13001;26.84;27.24;30,8;BCS1388054;4;11
009614;17.12.2019;20:34:29;Stop          ;03.12.2018;FEY;;LION;49;14500;7200;192;51;10;10;8400;3000;3354;3355;1;13002;34.44;34.04;34,1;BCS1388054;4;11
009614;18.12.2019;08:31:26;Fastcharge    ;03.12.2018;FEY;;LION;49;14500;7200;192;51;10;10;8400;3000;3371;3373;1;13001;26.64;27.14;31,6;BCS1388054;4;11
009614;18.12.2019;14:29:12;Stop          ;03.12.2018;FEY;;LION;49;14500;7200;224;51;96;100;8400;;4161;4163;1;13001;30.14;28.94;31,9;BCS1388054;4;11
009614;19.12.2019;08:23:58;Charge to 60% ;03.12.2018;FEY;;LION;49;14500;7200;224;51;97;100;8400;;4149;4150;1;13003;26.54;27.34;31,6;BCS1388054;4;11
009614;19.12.2019;11:30:18;Stop          ;03.12.2018;FEY;;LION;49;14500;7200;192;52;58;60;8400;3000;3764;3766;1;13001;34.14;33.84;34,6;BCS1388054;4;11
009614;19.12.2019;12:16:45;Cycle         ;03.12.2018;FEY;;LION;49;14500;7200;192;52;58;60;8400;3000;3782;3784;1;13002;30.64;29.64;32,7;BCS1388054;4;11
009614;20.12.2019;17:30:48;Stop          ;03.12.2018;FEY;;LION;49;14500;7200;224;53;95;100;8400;;4152;4152;1;13003;26.84;27.04;30,6;BCS1388054;4;11
009614;06.01.2020;06:34:50;Charge to 60% ;03.12.2018;FEY;;LION;49;14500;7200;192;53;94;98;8400;;4123;4122;1;13001;26.74;27.54;31,9;BCS1388054;4;11
009614;06.01.2020;09:30:33;Stop          ;03.12.2018;FEY;;LION;49;14500;7200;192;53;58;60;8400;3000;3679;3730;1;13003;33.34;35.04;33,7;BCS1388054;4;11
009614;06.01.2020;09:50:38;Fastcharge    ;03.12.2018;FEY;;LION;49;14500;7200;192;53;58;60;8400;3000;3779;3780;1;13003;31.84;30.54;32,7;BCS1388054;4;11
009614;06.01.2020;13:09:19;Stop          ;03.12.2018;FEY;;LION;49;14500;7200;224;53;96;100;8400;;4160;4160;1;13003;29.64;28.44;31,4;BCS1388054;4;11

File: 009616.txt
Serialnumber ; Date ; Time ; Action ; Date of Manufacture ; Manufacturer ; Battery Name ; Device-Chemistry ; Specification-Info ; Design-Capacity [mAh] ; Design-Voltage [mV] ; Battery Status ; Cycle Count ; SOC [%] ; Relativ SOC[%] ; Desired Voltage [mV]; Desired Current [mA]; Cell Voltage 1 [mV] ; Cell Voltage 2 [mV] ; Max_Error [%] ; Busvoltage[mV] ; Battery Temperature [°C] ; Charger Temperature [°C] ; Batterysystem ; Case ; PLace
009616;10.12.2019;15:29:01;Charge to 30% ;04.12.2018;FEY;;LION;49;14500;7200;224;39;95;100;8400;;4132;4132;1;13012;22.34;25.04;27,1;BCS1388054;5;3
009616;10.12.2019;20:48:54;Stop          ;04.12.2018;FEY;;LION;49;14500;7200;192;40;29;30;8400;3000;3545;3545;1;13009;33.24;37.54;33,1;BCS1388054;5;3
009616;11.12.2019;08:48:53;Fastcharge    ;04.12.2018;FEY;;LION;49;14500;7200;192;40;29;30;8400;3000;3564;3564;1;13011;26.34;28.94;31,9;BCS1388054;5;3
009616;11.12.2019;13:40:11;Stop          ;04.12.2018;FEY;;LION;49;14500;7200;224;40;96;100;8400;;4164;4162;1;13009;30.04;31.44;32,4;BCS1388054;5;3
009616;11.12.2019;15:46:40;Charge to 10% ;04.12.2018;FEY;;LION;49;14500;7200;224;40;98;100;8400;;4155;4154;1;13011;27.14;29.24;31,4;BCS1388054;5;3
009616;11.12.2019;22:49:07;Stop          ;04.12.2018;FEY;;LION;49;14500;7200;192;41;10;10;8400;3000;3342;3341;1;13008;34.04;37.34;33,5;BCS1388054;5;3
009616;12.12.2019;08:45:10;Normalcharge  ;04.12.2018;FEY;;LION;49;14500;7200;192;41;9;10;8400;3000;3361;3361;1;13009;26.54;29.04;31,7;BCS1388054;5;3
009616;12.12.2019;16:41:20;Stop          ;04.12.2018;FEY;;LION;49;14500;7200;224;41;96;100;8400;;4162;4158;1;13009;29.24;30.64;31,6;BCS1388054;5;3
009616;13.12.2019;10:48:05;Charge to 10% ;04.12.2018;FEY;;LION;49;14500;7200;224;41;97;100;8400;;4149;4146;1;13010;26.54;29.24;32,0;BCS1388054;5;3
009616;13.12.2019;15:40:55;Stop          ;04.12.2018;FEY;;LION;49;14500;7200;192;42;36;38;8400;3000;3506;3554;1;13511;32.44;39.04;34,6;BCS1388054;5;3
009616;13.12.2019;15:41:42;Cycle         ;04.12.2018;FEY;;LION;49;14500;7200;192;42;36;38;8400;3000;3586;3584;1;13009;32.44;36.74;34,5;BCS1388054;5;3
009616;14.12.2019;22:39:35;Stop          ;04.12.2018;FEY;;LION;49;14500;7200;224;43;93;100;8400;;4154;4151;1;13009;26.64;28.94;31,7;BCS1388054;5;3
009616;16.12.2019;07:43:20;Charge to 10% ;04.12.2018;FEY;;LION;49;14500;7200;224;43;93;100;8400;;4147;4145;1;13010;26.34;28.24;31,9;BCS1388054;5;3
009616;16.12.2019;14:34:29;Stop          ;04.12.2018;FEY;;LION;49;14500;7200;192;44;10;10;8400;3000;3359;3356;1;13009;32.34;35.54;32,5;BCS1388054;5;3
009616;16.12.2019;14:44:17;Charge to 90% ;04.12.2018;FEY;;LION;49;14500;7200;192;44;10;10;8400;3000;3367;3365;1;13009;31.74;31.54;31,9;BCS1388054;5;3
009616;16.12.2019;20:48:55;Stop          ;04.12.2018;FEY;;LION;49;14500;7200;128;44;85;90;8400;3000;4073;4073;1;13010;31.84;36.14;31,9;BCS1388054;5;3
009616;17.12.2019;08:37:53;Fastcharge    ;04.12.2018;FEY;;LION;49;14500;7200;192;44;85;90;8400;3000;4047;4047;1;13010;26.44;28.84;31,6;BCS1388054;5;3
009616;17.12.2019;10:33:46;Stop          ;04.12.2018;FEY;;LION;49;14500;7200;224;44;96;100;8400;;4159;4159;1;13009;28.04;29.84;31,1;BCS1388054;5;3
009616;17.12.2019;10:33:46;Stop          ;04.12.2018;FEY;;LION;49;14500;7200;224;44;96;100;8400;;4159;4159;1;13009;28.04;29.84;31,1;BCS1388054;5;3
009616;17.12.2019;13:38:36;Charge to 10% ;04.12.2018;FEY;;LION;49;14500;7200;224;44;96;100;8400;;4151;4151;1;13009;26.74;28.84;30,8;BCS1388054;5;3
009616;17.12.2019;20:33:18;Stop          ;04.12.2018;FEY;;LION;49;14500;7200;192;45;10;10;8400;3000;3352;3351;1;13008;34.04;37.54;34,5;BCS1388054;5;3
009616;18.12.2019;08:31:30;Fastcharge    ;04.12.2018;FEY;;LION;49;14500;7200;192;45;10;10;8400;3000;3370;3370;1;13009;26.54;28.94;31,6;BCS1388054;5;3
009616;18.12.2019;14:29:27;Stop          ;04.12.2018;FEY;;LION;49;14500;7200;224;45;96;100;8400;;4165;4168;1;13009;30.04;31.34;31,7;BCS1388054;5;3
009616;19.12.2019;08:24:02;Charge to 60% ;04.12.2018;FEY;;LION;49;14500;7200;224;45;97;100;8400;;4151;4153;1;13009;26.44;28.94;31,5;BCS1388054;5;3
009616;19.12.2019;11:31:09;Stop          ;04.12.2018;FEY;;LION;49;14500;7200;192;46;58;60;8400;3000;3673;3725;1;13009;33.74;38.54;34,4;BCS1388054;5;3
009616;19.12.2019;12:16:49;Cycle         ;04.12.2018;FEY;;LION;49;14500;7200;192;46;58;60;8400;3000;3774;3775;1;13008;30.44;31.04;32,7;BCS1388054;5;3
009616;20.12.2019;17:27:50;Stop          ;04.12.2018;FEY;;LION;49;14500;7200;224;47;94;100;8400;;4153;4153;1;13010;26.84;28.84;31,0;BCS1388054;5;3
009616;06.01.2020;06:34:55;Charge to 60% ;04.12.2018;FEY;;LION;49;14500;7200;192;47;93;99;8400;;4122;4122;1;13010;26.74;29.14;31,9;BCS1388054;5;3
009616;06.01.2020;09:30:26;Stop          ;04.12.2018;FEY;;LION;49;14500;7200;192;48;57;60;8400;3000;3753;3752;1;13009;32.94;37.74;33,9;BCS1388054;5;3
009616;06.01.2020;09:50:42;Fastcharge    ;04.12.2018;FEY;;LION;49;14500;7200;192;48;57;60;8400;3000;3775;3775;1;13009;31.44;31.64;32,7;BCS1388054;5;3
009616;06.01.2020;13:09:56;Stop          ;04.12.2018;FEY;;LION;49;14500;7200;224;48;95;100;8400;;4164;4165;1;13011;29.44;30.94;31,4;BCS1388054;5;3

File: 009652.txt
Serialnumber ; Date ; Time ; Action ; Date of Manufacture ; Manufacturer ; Battery Name ; Device-Chemistry ; Specification-Info ; Design-Capacity [mAh] ; Design-Voltage [mV] ; Battery Status ; Cycle Count ; SOC [%] ; Relativ SOC[%] ; Desired Voltage [mV]; Desired Current [mA]; Cell Voltage 1 [mV] ; Cell Voltage 2 [mV] ; Max_Error [%] ; Busvoltage[mV] ; Battery Temperature [°C] ; Charger Temperature [°C] ; Batterysystem ; Case ; PLace
009652;07.12.2020;04:14:25;Cycle          ;04.12.2018;FEY;;LION;49;14500;7200;16576;2;99;99;;;4151;4153;1;13010;25.64;27.94;30,3;BCS1388054;3;3
009652;08.12.2020;16:19:50;Stop           ;04.12.2018;FEY;;LION;49;14500;7200;16576;2;99;99;;;4148;4150;1;13012;27.84;29.54;31,9;BCS1388054;3;3
009652;03.03.2021;08:17:40;Normalcharge  ;04.12.2018;FEY;;LION;49;14500;7200;192;2;72;72;8400;3000;3870;3871;1;13015;23.14;23.74;23,6;BCS1388054;6;3
009652;03.03.2021;11:56:52;Stop          ;04.12.2018;FEY;;LION;49;14500;7200;224;2;100;100;8400;;4158;4159;1;13009;28.04;29.84;31,7;BCS1388054;6;3
009652;06.04.2021;08:38:46;Normalcharge  ;04.12.2018;FEY;;LION;49;14500;7200;224;2;99;99;8400;;4133;4134;1;13007;20.84;26.24;28,1;BCS1388054;2;10
009652;06.04.2021;08:39:36;Stop          ;04.12.2018;FEY;;LION;49;14500;7200;224;2;99;99;8400;;4133;4134;1;13005;20.94;26.44;28,2;BCS1388054;2;10
009652;08.04.2021;07:57:57;Normalcharge  ;04.12.2018;FEY;;LION;49;14500;7200;224;2;99;99;8400;;4133;4134;1;13009;25.24;26.34;26,3;BCS1388054;2;10
009652;08.04.2021;07:59:45;Stop          ;04.12.2018;FEY;;LION;49;14500;7200;224;2;99;99;8400;;4133;4134;1;13005;25.24;27.04;26,8;BCS1388054;2;10
009652;08.04.2021;10:35:00;Normalcharge  ;04.12.2018;FEY;;LION;49;14500;7200;224;2;99;99;8400;;4133;4134;1;13008;25.64;26.84;28,1;BCS1388054;2;10
009652;08.04.2021;10:36:53;Stop          ;04.12.2018;FEY;;LION;49;14500;7200;224;2;99;99;8400;;4133;4134;1;13004;25.64;27.54;28,9;BCS1388054;2;10
009652;18.04.2021;08:33:36;Normalcharge  ;04.12.2018;FEY;;LION;49;14500;7200;224;2;98;99;8400;;4129;4130;1;13005;26.14;27.74;27,7;BCS1388054;2;10
009652;18.04.2021;08:33:44;Stop          ;04.12.2018;FEY;;LION;49;14500;7200;224;2;98;99;8400;;4129;4130;1;13004;26.14;27.74;27,8;BCS1388054;2;10
009652;04.08.2021;07:24:55;Normalcharge  ;04.12.2018;FEY;;LION;49;14500;7200;192;2;96;96;8400;;4096;4096;1;12998;30.44;32.04;31,5;BCS1388054;2;10
009652;04.08.2021;07:25:47;Stop          ;04.12.2018;FEY;;LION;49;14500;7200;192;2;96;96;8400;;4095;4096;1;12995;30.44;32.34;31,9;BCS1388054;2;10
009652;22.08.2021;11:08:08;Normalcharge  ;04.12.2018;FEY;;LION;49;14500;7200;192;2;93;94;8400;3000;4082;4083;1;13010;23.94;29.74;32,1;BCS1388054;5;2
009652;22.08.2021;11:08:41;Stop          ;04.12.2018;FEY;;LION;49;14500;7200;128;2;93;94;8400;3000;4106;4096;1;12848;23.94;31.24;32,5;BCS1388054;5;2

File: 009653.txt
Serialnumber ; Date ; Time ; Action ; Date of Manufacture ; Manufacturer ; Battery Name ; Device-Chemistry ; Specification-Info ; Design-Capacity [mAh] ; Design-Voltage [mV] ; Battery Status ; Cycle Count ; SOC [%] ; Relativ SOC[%] ; Desired Voltage [mV]; Desired Current [mA]; Cell Voltage 1 [mV] ; Cell Voltage 2 [mV] ; Max_Error [%] ; Busvoltage[mV] ; Battery Temperature [°C] ; Charger Temperature [°C] ; Batterysystem ; Case ; PLace
009653;07.12.2020;04:14:21;Cycle         ;04.12.2018;FEY;;LION;49;14500;7200;224;3;100;99;8400;;4156;4156;1;13000;25.24;27.94;30,3;BCS1388054;2;8
009653;08.12.2020;16:19:44;Stop          ;04.12.2018;FEY;;LION;49;14500;7200;224;4;98;100;8400;;4152;4150;1;12999;27.44;29.64;31,9;BCS1388054;2;8
009653;03.03.2021;08:17:35;Normalcharge  ;04.12.2018;FEY;;LION;49;14500;7200;192;5;73;75;8400;3000;3889;3888;1;13009;22.74;23.24;23,6;BCS1388054;5;14
009653;03.03.2021;11:26:36;Stop          ;04.12.2018;FEY;;LION;49;14500;7200;224;5;98;100;8400;;4159;4156;1;13002;28.64;30.04;31,5;BCS1388054;5;14
009653;06.04.2021;08:38:50;Normalcharge  ;04.12.2018;FEY;;LION;49;14500;7200;224;5;96;99;8400;;4132;4129;1;13008;20.24;24.94;28,1;BCS1388054;3;18
009653;06.04.2021;08:39:42;Stop           ;04.12.2018;FEY;;LION;49;14500;7200;224;5;96;99;8400;;4132;4129;1;13006;20.44;25.04;28,2;BCS1388054;3;18
009653;08.04.2021;07:58:01;Normalcharge  ;04.12.2018;FEY;;LION;49;14500;7200;224;5;96;99;8400;;4131;4128;1;13009;24.84;25.14;26,4;BCS1388054;3;18
009653;08.04.2021;07:59:40;Stop           ;04.12.2018;FEY;;LION;49;14500;7200;224;5;96;99;8400;;4131;4129;1;13007;24.84;25.64;26,8;BCS1388054;3;18
009653;08.04.2021;10:35:05;Normalcharge  ;04.12.2018;FEY;;LION;49;14500;7200;224;5;96;99;8400;;4131;4128;1;13008;25.14;25.34;28,1;BCS1388054;3;18
009653;08.04.2021;10:36:56;Stop           ;04.12.2018;FEY;;LION;49;14500;7200;224;5;96;99;8400;;4131;4129;1;13005;25.14;25.94;29,0;BCS1388054;3;18
009653;18.04.2021;08:33:50;Normalcharge  ;04.12.2018;FEY;;LION;49;14500;7200;224;5;96;99;8400;;4128;4125;1;13006;25.74;26.44;27,8;BCS1388054;3;18
009653;18.04.2021;08:33:58;Stop           ;04.12.2018;FEY;;LION;49;14500;7200;224;5;96;99;8400;;4127;4125;1;13005;25.74;26.54;27,9;BCS1388054;3;18
009653;04.08.2021;07:24:50;Normalcharge  ;04.12.2018;FEY;;LION;49;14500;7200;192;5;94;96;8400;;4094;4092;1;13001;29.94;30.74;31,6;BCS1388054;3;18
009653;04.08.2021;07:25:37;Stop           ;04.12.2018;FEY;;LION;49;14500;7200;192;5;94;96;8400;;4094;4092;1;12999;29.94;30.84;31,7;BCS1388054;3;18
009653;22.08.2021;11:08:05;Normalcharge  ;04.12.2018;FEY;;LION;49;14500;7200;192;5;67;69;8400;3000;3838;3836;1;13011;22.04;29.94;32,1;BCS1388054;4;16
009653;22.08.2021;11:08:38;Stop          ;04.12.2018;FEY;;LION;49;14500;7200;128;5;67;69;8400;3000;3896;3863;1;12667;22.14;31.04;32,5;BCS1388054;4;16

File: 009660.txt
Serialnumber ; Date ; Time ; Action ; Date of Manufacture ; Manufacturer ; Battery Name ; Device-Chemistry ; Specification-Info ; Design-Capacity [mAh] ; Design-Voltage [mV] ; Battery Status ; Cycle Count ; SOC [%] ; Relativ SOC[%] ; Desired Voltage [mV]; Desired Current [mA]; Cell Voltage 1 [mV] ; Cell Voltage 2 [mV] ; Max_Error [%] ; Busvoltage[mV] ; Battery Temperature [°C] ; Charger Temperature [°C] ; Batterysystem ; Case ; PLace
009660;07.12.2020;04:14:36;Cycle         ;03.12.2018;FEY;;LION;49;14500;7200;192;2;95;97;8400;;4115;4116;1;12990;25.44;27.74;30,3;BCS1388054;6;18
009660;08.12.2020;16:20:13;Stop          ;03.12.2018;FEY;;LION;49;14500;7200;192;2;95;97;8400;;4114;4115;1;12990;27.34;29.34;31,9;BCS1388054;6;18
009660;12.01.2021;04:17:33;Charge to 90% ;03.12.2018;FEY;;LION;49;14500;7200;192;2;94;96;8400;;4104;4104;1;13011;22.74;23.74;23,6;BCS1388054;4;12
009660;12.01.2021;04:57:16;Stop          ;03.12.2018;FEY;;LION;49;14500;7200;192;2;88;90;8400;3000;4044;4045;1;13007;27.44;27.64;31,6;BCS1388054;4;12
009660;12.01.2021;05:21:49;Cycle         ;03.12.2018;FEY;;LION;49;14500;7200;192;2;88;90;8400;3000;4046;4047;1;13008;26.94;26.64;30,4;BCS1388054;4;12
009660;13.01.2021;08:19:19;Stop          ;03.12.2018;FEY;;LION;49;14500;7200;224;4;96;100;8400;;4155;4158;1;13007;26.54;27.14;30,7;BCS1388054;4;12
009660;06.04.2021;08:38:50;Normalcharge  ;03.12.2018;FEY;;LION;49;14500;7200;192;4;94;98;8400;;4115;4117;1;13009;20.24;25.14;28,1;BCS1388054;3;10
009660;06.04.2021;08:39:42;Stop           ;03.12.2018;FEY;;LION;49;14500;7200;192;4;94;98;8400;;4115;4117;1;13007;20.34;25.34;28,2;BCS1388054;3;10
009660;08.04.2021;07:58:01;Normalcharge  ;03.12.2018;FEY;;LION;49;14500;7200;192;4;94;98;8400;;4115;4117;1;13008;24.94;25.44;26,4;BCS1388054;3;10
009660;08.04.2021;07:59:40;Stop           ;03.12.2018;FEY;;LION;49;14500;7200;192;4;94;98;8400;;4115;4117;1;13008;24.94;26.04;26,8;BCS1388054;3;10
009660;08.04.2021;10:35:05;Normalcharge  ;03.12.2018;FEY;;LION;49;14500;7200;192;4;94;98;8400;;4115;4117;1;13010;25.14;25.74;28,1;BCS1388054;3;10
009660;08.04.2021;10:36:56;Stop           ;03.12.2018;FEY;;LION;49;14500;7200;192;4;94;98;8400;;4115;4117;1;13006;25.14;26.44;29,0;BCS1388054;3;10
009660;18.04.2021;08:33:50;Normalcharge  ;03.12.2018;FEY;;LION;49;14500;7200;192;4;94;97;8400;;4112;4114;1;13008;25.84;26.74;27,8;BCS1388054;3;10
009660;18.04.2021;08:33:58;Stop           ;03.12.2018;FEY;;LION;49;14500;7200;192;4;94;97;8400;;4112;4113;1;13008;25.84;26.84;27,9;BCS1388054;3;10
009660;04.08.2021;07:24:50;Normalcharge  ;03.12.2018;FEY;;LION;49;14500;7200;192;4;93;96;8400;;4083;4085;1;13002;30.04;31.04;31,6;BCS1388054;3;10
009660;04.08.2021;07:25:37;Stop           ;03.12.2018;FEY;;LION;49;14500;7200;192;4;93;96;8400;;4084;4085;1;13000;30.04;31.34;31,7;BCS1388054;3;10
009660;22.08.2021;11:08:05;Normalcharge  ;03.12.2018;FEY;;LION;49;14500;7200;192;4;67;70;8400;3000;3850;3851;1;13004;22.34;29.24;32,1;BCS1388054;4;13
009660;22.08.2021;11:08:38;Stop          ;03.12.2018;FEY;;LION;49;14500;7200;128;4;67;70;8400;3000;3890;3870;1;12678;22.44;30.54;32,5;BCS1388054;4;13

File: 009691.txt
Serialnumber ; Date ; Time ; Action ; Date of Manufacture ; Manufacturer ; Battery Name ; Device-Chemistry ; Specification-Info ; Design-Capacity [mAh] ; Design-Voltage [mV] ; Battery Status ; Cycle Count ; SOC [%] ; Relativ SOC[%] ; Desired Voltage [mV]; Desired Current [mA]; Cell Voltage 1 [mV] ; Cell Voltage 2 [mV] ; Max_Error [%] ; Busvoltage[mV] ; Battery Temperature [°C] ; Charger Temperature [°C] ; Batterysystem ; Case ; PLace
009691;07.12.2020;04:14:25;Cycle          ;04.12.2018;FEY;;LION;49;14500;7200;16576;2;98;99;;;4155;4155;1;13004;26.04;27.04;30,3;BCS1388054;3;5
009691;08.12.2020;16:19:50;Stop           ;04.12.2018;FEY;;LION;49;14500;7200;16576;2;98;99;;;4153;4153;1;13005;28.04;28.54;31,9;BCS1388054;3;5
009691;12.01.2021;04:17:33;Charge to 90% ;04.12.2018;FEY;;LION;49;14500;7200;16576;2;97;97;;;4135;4136;1;13006;23.34;23.24;23,6;BCS1388054;4;14
009691;12.01.2021;04:57:16;Stop          ;04.12.2018;FEY;;LION;49;14500;7200;192;2;90;90;8400;3000;4058;4059;1;12999;27.24;29.94;31,6;BCS1388054;4;14
009691;12.01.2021;05:21:49;Cycle         ;04.12.2018;FEY;;LION;49;14500;7200;192;2;90;90;8400;3000;4065;4065;1;13000;27.44;28.14;30,4;BCS1388054;4;14
009691;13.01.2021;08:19:19;Stop          ;04.12.2018;FEY;;LION;49;14500;7200;224;4;98;100;8400;;4156;4156;1;13000;27.54;28.04;30,7;BCS1388054;4;14
009691;21.02.2021;13:45:29;Normalcharge  ;04.12.2018;FEY;;LION;49;14500;7200;2768;5;;;8400;3000;2990;2981;1;13016;23.54;23.24;27,8;BCS1388054;6;3
009691;06.04.2021;08:38:46;Normalcharge  ;04.12.2018;FEY;;LION;49;14500;7200;192;5;96;98;8400;;4124;4125;1;13022;20.74;25.14;28,1;BCS1388054;2;6
009691;06.04.2021;08:39:36;Stop          ;04.12.2018;FEY;;LION;49;14500;7200;192;5;96;98;8400;;4124;4125;1;13020;20.84;25.34;28,2;BCS1388054;2;6
009691;08.04.2021;07:57:57;Normalcharge  ;04.12.2018;FEY;;LION;49;14500;7200;192;5;96;98;8400;;4124;4124;1;13022;25.54;25.34;26,3;BCS1388054;2;6
009691;08.04.2021;07:59:45;Stop          ;04.12.2018;FEY;;LION;49;14500;7200;192;5;96;98;8400;;4124;4125;1;13019;25.54;25.84;26,8;BCS1388054;2;6
009691;08.04.2021;10:35:00;Normalcharge  ;04.12.2018;FEY;;LION;49;14500;7200;192;5;96;98;8400;;4124;4124;1;13022;25.94;25.74;28,1;BCS1388054;2;6
009691;08.04.2021;10:36:53;Stop          ;04.12.2018;FEY;;LION;49;14500;7200;192;5;96;98;8400;;4124;4125;1;13018;25.94;26.44;28,9;BCS1388054;2;6
009691;18.04.2021;08:33:36;Normalcharge  ;04.12.2018;FEY;;LION;49;14500;7200;192;5;96;98;8400;;4120;4121;1;13018;26.44;26.54;27,7;BCS1388054;2;6
009691;18.04.2021;08:33:44;Stop          ;04.12.2018;FEY;;LION;49;14500;7200;192;5;96;98;8400;;4120;4121;1;13018;26.44;26.64;27,8;BCS1388054;2;6
009691;04.08.2021;07:24:55;Normalcharge  ;04.12.2018;FEY;;LION;49;14500;7200;192;5;94;96;8400;;4089;4089;1;13010;30.74;30.94;31,5;BCS1388054;2;6
009691;04.08.2021;07:25:47;Stop          ;04.12.2018;FEY;;LION;49;14500;7200;192;5;94;96;8400;;4088;4089;1;13009;30.74;31.04;31,9;BCS1388054;2;6
009691;22.08.2021;11:08:04;Normalcharge  ;04.12.2018;FEY;;LION;49;14500;7200;192;5;93;95;8400;3000;4075;4076;1;12988;23.04;30.64;32,1;BCS1388054;4;2
009691;22.08.2021;11:08:37;Stop          ;04.12.2018;FEY;;LION;49;14500;7200;128;5;93;95;8400;3000;4120;4103;1;12699;23.14;31.74;32,5;BCS1388054;4;2

File: 009717.txt
Serialnumber ; Date ; Time ; Action ; Date of Manufacture ; Manufacturer ; Battery Name ; Device-Chemistry ; Specification-Info ; Design-Capacity [mAh] ; Design-Voltage [mV] ; Battery Status ; Cycle Count ; SOC [%] ; Relativ SOC[%] ; Desired Voltage [mV]; Desired Current [mA]; Cell Voltage 1 [mV] ; Cell Voltage 2 [mV] ; Max_Error [%] ; Busvoltage[mV] ; Battery Temperature [°C] ; Charger Temperature [°C] ; Batterysystem ; Case ; PLace
009717;07.12.2020;04:14:21;Cycle         ;04.12.2018;FEY;;LION;49;14500;7200;16576;2;98;99;;;4141;4141;1;13003;25.64;27.34;30,3;BCS1388054;2;16
009717;08.12.2020;16:19:44;Stop          ;04.12.2018;FEY;;LION;49;14500;7200;16576;2;98;99;;;4139;4139;1;13002;27.74;28.94;31,9;BCS1388054;2;16
009717;12.01.2021;04:17:47;Charge to 90% ;04.12.2018;FEY;;LION;49;14500;7200;16576;2;97;98;;;4125;4125;1;13030;23.04;24.04;23,8;BCS1388054;7;10
009717;12.01.2021;04:57:20;Stop          ;04.12.2018;FEY;;LION;49;14500;7200;192;2;90;90;8400;3000;4049;4049;1;13025;26.44;28.84;31,5;BCS1388054;7;10
009717;12.01.2021;05:22:01;Cycle         ;04.12.2018;FEY;;LION;49;14500;7200;192;2;90;90;8400;3000;4055;4055;1;13026;26.54;27.34;30,4;BCS1388054;7;10
009717;13.01.2021;08:19:29;Stop          ;04.12.2018;FEY;;LION;49;14500;7200;224;3;98;100;8400;;4155;4156;1;13026;26.54;27.44;30,7;BCS1388054;7;10
009717;21.02.2021;13:44:56;Normalcharge  ;04.12.2018;FEY;;LION;49;14500;7200;192;4;52;53;8400;3000;3673;3673;1;13020;22.74;23.24;27,7;BCS1388054;5;18
009717;21.02.2021;19:31:36;Stop          ;04.12.2018;FEY;;LION;49;14500;7200;224;4;99;100;8400;;4154;4155;1;13016;26.84;28.04;30,6;BCS1388054;5;18
009717;06.04.2021;08:39:03;Normalcharge  ;04.12.2018;FEY;;LION;49;14500;7200;224;4;97;99;8400;;4127;4127;1;13019;21.24;24.94;28,1;BCS1388054;4;4
009717;06.04.2021;08:39:53;Stop          ;04.12.2018;FEY;;LION;49;14500;7200;224;4;97;99;8400;;4127;4127;1;13017;21.24;25.24;28,4;BCS1388054;4;4
009717;08.04.2021;07:58:12;Normalcharge  ;04.12.2018;FEY;;LION;49;14500;7200;224;4;97;99;8400;;4127;4127;1;13019;25.24;22.94;26,3;BCS1388054;4;4
009717;08.04.2021;07:59:34;Stop          ;04.12.2018;FEY;;LION;49;14500;7200;224;4;97;99;8400;;4127;4127;1;12999;25.24;25.74;26,7;BCS1388054;4;4
009717;08.04.2021;10:36:07;Normalcharge  ;04.12.2018;FEY;;LION;49;14500;7200;224;4;97;99;8400;;4127;4127;1;13018;25.44;25.94;28,5;BCS1388054;4;4
009717;08.04.2021;10:37:03;Stop          ;04.12.2018;FEY;;LION;49;14500;7200;224;4;97;99;8400;;4127;4127;1;12995;25.44;26.24;29,0;BCS1388054;4;4
009717;18.04.2021;08:34:04;Normalcharge  ;04.12.2018;FEY;;LION;49;14500;7200;224;4;97;99;8400;;4123;4123;1;13018;26.14;26.74;27,9;BCS1388054;4;4
009717;18.04.2021;08:34:10;Stop          ;04.12.2018;FEY;;LION;49;14500;7200;224;4;97;99;8400;;4123;4123;1;13016;26.14;26.74;28,1;BCS1388054;4;4
009717;04.08.2021;07:24:46;Normalcharge  ;04.12.2018;FEY;;LION;49;14500;7200;192;4;95;96;8400;;4091;4090;1;13013;30.34;30.64;31,5;BCS1388054;4;4
009717;04.08.2021;07:25:30;Stop          ;04.12.2018;FEY;;LION;49;14500;7200;192;4;95;96;8400;;4091;4090;1;12992;30.34;31.04;31,7;BCS1388054;4;4
009717;22.08.2021;11:37:17;Normalcharge  ;04.12.2018;FEY;;LION;49;14500;7200;192;4;95;96;8400;;4086;4086;1;12990;22.64;28.74;31,9;BCS1388054;6;6
009717;22.08.2021;11:37:57;Stop          ;04.12.2018;FEY;;LION;49;14500;7200;192;4;95;96;8400;;4086;4086;1;12862;22.84;28.94;32,0;BCS1388054;6;6