Folder: Battery_sort_V2/reader/as (part 4)

File: 009733.txt
Serialnumber ; Date ; Time ; Action ; Date of Manufacture ; Manufacturer ; Battery Name ; Device-Chemistry ; Specification-Info ; Design-Capacity [mAh] ; Design-Voltage [mV] ; Battery Status ; Cycle Count ; SOC [%] ; Relativ SOC[%] ; Desired Voltage [mV]; Desired Current [mA]; Cell Voltage 1 [mV] ; Cell Voltage 2 [mV] ; Max_Error [%] ; Busvoltage[mV] ; Battery Temperature [°C] ; Charger Temperature [°C] ; Batterysystem ; Case ; PLace
009733;07.02.2021;08:47:07;Normalcharge  ;04.12.2018;FEY;;LION;49;14500;7200;192;4;79;80;8400;3000;3932;3933;1;13017;23.54;26.04;29,2;BCS1388054;5;5
009733;07.02.2021;11:50:11;Stop          ;04.12.2018;FEY;;LION;49;14500;7200;224;4;98;100;8400;;4154;4155;1;13017;25.74;27.34;30,0;BCS1388054;5;5
009733;03.03.2021;08:17:35;Normalcharge  ;04.12.2018;FEY;;LION;49;14500;7200;192;4;83;84;8400;3000;3973;3973;1;13009;23.24;23.74;23,6;BCS1388054;5;3
009733;03.03.2021;11:26:36;Stop          ;04.12.2018;FEY;;LION;49;14500;7200;224;4;99;100;8400;;4154;4155;1;13003;28.44;30.24;31,5;BCS1388054;5;3
009733;04.04.2021;11:50:22;Normalcharge  ;04.12.2018;FEY;;LION;49;14500;7200;192;5;58;59;8400;3000;3738;3742;1;13005;25.14;25.74;27,9;BCS1388054;4;17
009733;04.04.2021;11:51:36;Stop          ;04.12.2018;FEY;;LION;49;14500;7200;128;5;58;59;8400;3000;3831;3788;1;12696;25.14;28.84;28,6;BCS1388054;4;17
009733;05.04.2021;09:37:37;Charge to 60% ;04.12.2018;FEY;;LION;49;14500;7200;192;5;58;59;8400;3000;3742;3745;1;12995;25.14;25.64;26,0;BCS1388054;1;5
009733;05.04.2021;10:01:53;Stop          ;04.12.2018;FEY;;LION;49;14500;7200;192;5;58;60;8400;3000;3747;3751;1;12991;25.94;27.44;31,2;BCS1388054;1;5
009733;22.08.2021;11:08:18;Normalcharge  ;04.12.2018;FEY;;LION;49;14500;7200;192;5;54;55;8400;3000;3701;3702;1;13030;30.04;31.04;32,2;BCS1388054;7;5
009733;22.08.2021;11:08:50;Stop          ;04.12.2018;FEY;;LION;49;14500;7200;128;5;54;55;8400;3000;3733;3717;1;12848;30.04;32.14;32,6;BCS1388054;7;5
009733;25.08.2021;08:15:08;Charge to 60% ;04.12.2018;FEY;;LION;49;14500;7200;192;5;54;55;8400;3000;3700;3702;1;12988;30.54;33.04;33,4;BCS1388054;4;2
009733;25.08.2021;12:59:17;Stop          ;04.12.2018;FEY;;LION;49;14500;7200;192;5;58;60;8400;3000;3749;3751;1;12987;32.84;35.64;36,6;BCS1388054;4;2

File: 009785.txt
Serialnumber ; Date ; Time ; Action ; Date of Manufacture ; Manufacturer ; Battery Name ; Device-Chemistry ; Specification-Info ; Design-Capacity [mAh] ; Design-Voltage [mV] ; Battery Status ; Cycle Count ; SOC [%] ; Relativ SOC[%] ; Desired Voltage [mV]; Desired Current [mA]; Cell Voltage 1 [mV] ; Cell Voltage 2 [mV] ; Max_Error [%] ; Busvoltage[mV] ; Battery Temperature [°C] ; Charger Temperature [°C] ; Batterysystem ; Case ; PLace
009785;01.12.2020;07:38:36;Cycle         ;04.12.2018;FEY;;LION;49;14500;7200;192;3;18;19;8400;3000;3447;3449;1;13008;25.54;25.74;28,8;BCS1388054;2;1
009785;02.12.2020;16:21:01;Stop          ;04.12.2018;FEY;;LION;49;14500;7200;224;4;98;100;8400;;4157;4156;1;13002;26.64;28.34;29,3;BCS1388054;2;1
009785;03.03.2021;08:17:08;Normalcharge  ;04.12.2018;FEY;;LION;49;14500;7200;192;4;95;97;8400;;4105;4105;1;13008;23.14;22.54;23,5;BCS1388054;1;10
009785;04.03.2021;07:53:51;Stop          ;04.12.2018;FEY;;LION;49;14500;7200;192;4;94;97;8400;;4104;4104;1;13000;26.04;26.64;31,6;BCS1388054;1;10
009785;04.04.2021;11:50:22;Normalcharge  ;04.12.2018;FEY;;LION;49;14500;7200;192;4;94;97;8400;;4094;4094;1;13009;25.14;25.84;27,9;BCS1388054;4;13
009785;04.04.2021;11:51:36;Stop          ;04.12.2018;FEY;;LION;49;14500;7200;192;4;94;97;8400;;4094;4094;1;12743;25.14;26.14;28,6;BCS1388054;4;13
009785;22.08.2021;11:37:30;Normalcharge  ;04.12.2018;FEY;;LION;49;14500;7200;192;4;91;93;8400;3000;4047;4048;1;12998;21.54;28.04;31,9;BCS1388054;3;7
009785;22.08.2021;11:38:19;Stop           ;04.12.2018;FEY;;LION;49;14500;7200;128;4;91;93;8400;3000;4116;4087;1;12570;21.74;29.94;32,1;BCS1388054;3;7

File: 009804.txt
Serialnumber ; Date ; Time ; Action ; Date of Manufacture ; Manufacturer ; Battery Name ; Device-Chemistry ; Specification-Info ; Design-Capacity [mAh] ; Design-Voltage [mV] ; Battery Status ; Cycle Count ; SOC [%] ; Relativ SOC[%] ; Desired Voltage [mV]; Desired Current [mA]; Cell Voltage 1 [mV] ; Cell Voltage 2 [mV] ; Max_Error [%] ; Busvoltage[mV] ; Battery Temperature [°C] ; Charger Temperature [°C] ; Batterysystem ; Case ; PLace
009804;07.02.2021;08:46:48;Normalcharge  ;03.12.2018;FEY;;LION;49;14500;7200;192;1;97;97;8400;;4131;4131;1;13014;23.34;25.04;29,2;BCS1388054;2;6
009804;07.02.2021;11:52:12;Stop          ;03.12.2018;FEY;;LION;49;14500;7200;192;1;97;97;8400;;4131;4131;1;13014;25.34;25.94;29,7;BCS1388054;2;6
009804;03.03.2021;08:17:40;Normalcharge  ;03.12.2018;FEY;;LION;49;14500;7200;192;1;72;73;8400;3000;3884;3885;1;13002;22.74;24.64;23,6;BCS1388054;6;2
009804;03.03.2021;11:56:52;Stop          ;03.12.2018;FEY;;LION;49;14500;7200;224;1;99;100;8400;;4156;4157;1;12998;27.74;31.34;31,7;BCS1388054;6;2
009804;06.04.2021;08:38:46;Normalcharge  ;03.12.2018;FEY;;LION;49;14500;7200;224;1;98;99;8400;;4133;4133;1;13002;20.34;25.04;28,1;BCS1388054;2;14
009804;06.04.2021;08:39:36;Stop          ;03.12.2018;FEY;;LION;49;14500;7200;224;1;98;99;8400;;4133;4133;1;13001;20.44;25.34;28,2;BCS1388054;2;14
009804;08.04.2021;07:57:57;Normalcharge  ;03.12.2018;FEY;;LION;49;14500;7200;224;1;98;99;8400;;4132;4133;1;13009;24.94;25.14;26,3;BCS1388054;2;14
009804;08.04.2021;07:59:45;Stop          ;03.12.2018;FEY;;LION;49;14500;7200;224;1;98;99;8400;;4133;4133;1;13006;24.94;25.94;26,8;BCS1388054;2;14
009804;08.04.2021;10:35:00;Normalcharge  ;03.12.2018;FEY;;LION;49;14500;7200;224;1;98;99;8400;;4133;4133;1;13009;25.34;25.64;28,1;BCS1388054;2;14
009804;08.04.2021;10:36:53;Stop          ;03.12.2018;FEY;;LION;49;14500;7200;224;1;98;99;8400;;4133;4133;1;13006;25.34;26.44;28,9;BCS1388054;2;14
009804;18.04.2021;08:33:36;Normalcharge  ;03.12.2018;FEY;;LION;49;14500;7200;224;1;98;99;8400;;4129;4129;1;13005;25.84;26.54;27,7;BCS1388054;2;14
009804;18.04.2021;08:33:44;Stop          ;03.12.2018;FEY;;LION;49;14500;7200;224;1;98;99;8400;;4129;4129;1;13006;25.84;26.54;27,8;BCS1388054;2;14
009804;04.08.2021;07:24:55;Normalcharge  ;03.12.2018;FEY;;LION;49;14500;7200;192;1;95;96;8400;;4096;4096;1;12992;30.14;30.94;31,5;BCS1388054;2;14
009804;04.08.2021;07:25:47;Stop          ;03.12.2018;FEY;;LION;49;14500;7200;192;1;95;96;8400;;4096;4097;1;12991;30.14;31.24;31,9;BCS1388054;2;14
009804;22.08.2021;11:37:17;Normalcharge  ;03.12.2018;FEY;;LION;49;14500;7200;192;1;87;89;8400;3000;4028;4028;1;12990;22.54;29.34;31,9;BCS1388054;6;10
009804;22.08.2021;11:37:57;Stop          ;03.12.2018;FEY;;LION;49;14500;7200;128;1;87;89;8400;3000;4055;4043;1;12853;22.64;30.64;32,0;BCS1388054;6;10

File: 009812.txt
Serialnumber ; Date ; Time ; Action ; Date of Manufacture ; Manufacturer ; Battery Name ; Device-Chemistry ; Specification-Info ; Design-Capacity [mAh] ; Design-Voltage [mV] ; Battery Status ; Cycle Count ; SOC [%] ; Relativ SOC[%] ; Desired Voltage [mV]; Desired Current [mA]; Cell Voltage 1 [mV] ; Cell Voltage 2 [mV] ; Max_Error [%] ; Busvoltage[mV] ; Battery Temperature [°C] ; Charger Temperature [°C] ; Batterysystem ; Case ; PLace
009812;10.12.2019;15:28:40;Charge to 30% ;03.12.2018;FEY;;LION;49;14500;7200;224;50;92;100;8400;;4131;4131;1;13012;22.84;25.04;27,1;BCS1388054;2;4
009812;10.12.2019;20:48:37;Stop          ;03.12.2018;FEY;;LION;49;14500;7200;192;51;28;30;8400;3000;3561;3561;1;13010;33.24;33.14;33,2;BCS1388054;2;4
009812;11.12.2019;08:48:24;Fastcharge    ;03.12.2018;FEY;;LION;49;14500;7200;192;51;28;30;8400;3000;3569;3569;1;13010;26.24;28.24;31,9;BCS1388054;2;4
009812;11.12.2019;13:39:47;Stop          ;03.12.2018;FEY;;LION;49;14500;7200;224;51;94;100;8400;;4161;4161;1;13010;29.74;30.44;32,5;BCS1388054;2;4
009812;11.12.2019;15:46:18;Charge to 10% ;03.12.2018;FEY;;LION;49;14500;7200;224;51;95;100;8400;;4152;4153;1;13010;27.04;28.54;31,4;BCS1388054;2;4
009812;11.12.2019;22:49:04;Stop          ;03.12.2018;FEY;;LION;49;14500;7200;192;52;10;10;8400;3000;3355;3355;1;13009;33.94;33.74;33,6;BCS1388054;2;4
009812;12.12.2019;08:44:52;Normalcharge  ;03.12.2018;FEY;;LION;49;14500;7200;192;52;9;9;8400;3000;3365;3365;1;13009;26.44;28.44;31,9;BCS1388054;2;4
009812;12.12.2019;16:40:06;Stop          ;03.12.2018;FEY;;LION;49;14500;7200;224;52;95;100;8400;;4159;4158;1;13010;28.94;29.94;31,7;BCS1388054;2;4
009812;13.12.2019;10:47:50;Charge to 10% ;03.12.2018;FEY;;LION;49;14500;7200;224;52;95;100;8400;;4147;4147;1;13009;26.44;28.44;32,0;BCS1388054;2;4
009812;13.12.2019;15:42:08;Cycle         ;03.12.2018;FEY;;LION;49;14500;7200;192;53;34;36;8400;3000;3497;3548;1;13567;33.04;38.14;34,6;BCS1388054;2;4
009812;13.12.2019;15:42:08;Stop          ;03.12.2018;FEY;;LION;49;14500;7200;192;53;34;36;8400;3000;3497;3548;1;13567;33.04;38.14;34,6;BCS1388054;2;4
009812;14.12.2019;22:48:51;Stop          ;03.12.2018;FEY;;LION;49;14500;7200;224;54;92;99;8400;;4151;4150;1;13011;26.54;28.44;32,0;BCS1388054;2;4
009812;16.12.2019;07:43:06;Charge to 10% ;03.12.2018;FEY;;LION;49;14500;7200;224;54;93;100;8400;;4145;4144;1;13011;26.14;27.94;31,9;BCS1388054;2;4
009812;16.12.2019;14:37:54;Stop          ;03.12.2018;FEY;;LION;49;14500;7200;192;56;10;10;8400;3000;3368;3367;1;13011;32.54;32.04;32,4;BCS1388054;2;4
009812;16.12.2019;14:44:03;Charge to 90% ;03.12.2018;FEY;;LION;49;14500;7200;192;56;10;10;8400;3000;3369;3368;1;13011;32.04;31.34;31,9;BCS1388054;2;4
009812;16.12.2019;20:51:09;Stop          ;03.12.2018;FEY;;LION;49;14500;7200;192;56;84;90;8400;3000;4053;4054;1;13012;31.24;31.04;31,6;BCS1388054;2;4
009812;17.12.2019;08:37:40;Fastcharge    ;03.12.2018;FEY;;LION;49;14500;7200;192;56;84;90;8400;3000;4046;4046;1;13012;26.24;28.24;31,6;BCS1388054;2;4
009812;17.12.2019;10:30:36;Stop          ;03.12.2018;FEY;;LION;49;14500;7200;224;56;94;100;8400;;4162;4163;1;13011;27.84;29.44;31,5;BCS1388054;2;4
009812;17.12.2019;13:38:22;Charge to 10% ;03.12.2018;FEY;;LION;49;14500;7200;224;56;94;100;8400;;4149;4150;1;13011;26.54;28.24;30,8;BCS1388054;2;4
009812;17.12.2019;20:36:00;Stop          ;03.12.2018;FEY;;LION;49;14500;7200;192;57;10;10;8400;3000;3368;3368;1;13010;33.74;33.34;33,6;BCS1388054;2;4
009812;18.12.2019;08:31:17;Fastcharge    ;03.12.2018;FEY;;LION;49;14500;7200;192;57;10;11;8400;3000;3376;3377;1;13011;26.44;28.24;31,6;BCS1388054;2;4
009812;18.12.2019;14:28:27;Stop          ;03.12.2018;FEY;;LION;49;14500;7200;224;57;94;100;8400;;4159;4161;1;13011;29.84;30.34;32,0;BCS1388054;2;4
009812;19.12.2019;08:23:50;Charge to 60% ;03.12.2018;FEY;;LION;49;14500;7200;224;57;95;100;8400;;4148;4149;1;13011;26.24;28.14;31,5;BCS1388054;2;4
009812;19.12.2019;11:32:11;Stop          ;03.12.2018;FEY;;LION;49;14500;7200;192;57;57;60;8400;3000;3767;3769;1;13009;33.74;33.84;34,0;BCS1388054;2;4
009812;19.12.2019;12:16:37;Cycle         ;03.12.2018;FEY;;LION;49;14500;7200;192;57;57;60;8400;3000;3774;3778;1;13010;30.44;30.44;32,7;BCS1388054;2;4
009812;20.12.2019;17:35:47;Stop          ;03.12.2018;FEY;;LION;49;14500;7200;224;58;93;99;8400;;4151;4150;1;13012;26.54;28.24;31,1;BCS1388054;2;4
009812;06.01.2020;06:34:42;Charge to 60% ;03.12.2018;FEY;;LION;49;14500;7200;192;59;91;98;8400;;4122;4122;1;13012;26.34;28.14;31,9;BCS1388054;2;4
009812;06.01.2020;09:32:11;Stop          ;03.12.2018;FEY;;LION;49;14500;7200;192;59;56;60;8400;3000;3773;3773;1;13011;32.94;33.04;33,2;BCS1388054;2;4
009812;06.01.2020;09:50:30;Fastcharge    ;03.12.2018;FEY;;LION;49;14500;7200;192;59;56;60;8400;3000;3778;3779;1;13013;31.64;31.14;32,7;BCS1388054;2;4
009812;06.01.2020;13:08:34;Stop          ;03.12.2018;FEY;;LION;49;14500;7200;224;59;93;100;8400;;4158;4159;1;13012;29.24;29.74;31,6;BCS1388054;2;4

File: 009826.txt
Serialnumber ; Date ; Time ; Action ; Date of Manufacture ; Manufacturer ; Battery Name ; Device-Chemistry ; Specification-Info ; Design-Capacity [mAh] ; Design-Voltage [mV] ; Battery Status ; Cycle Count ; SOC [%] ; Relativ SOC[%] ; Desired Voltage [mV]; Desired Current [mA]; Cell Voltage 1 [mV] ; Cell Voltage 2 [mV] ; Max_Error [%] ; Busvoltage[mV] ; Battery Temperature [°C] ; Charger Temperature [°C] ; Batterysystem ; Case ; PLace
009826;02.12.2020;11:43:08;Cycle         ;03.12.2018;FEY;;LION;49;14500;7200;192;4;81;82;8400;3000;3943;3942;1;12990;26.24;28.34;28,4;BCS1388054;1;2
009826;03.12.2020;15:31:47;Stop          ;03.12.2018;FEY;;LION;49;14500;7200;224;6;97;100;8400;;4154;4154;1;12991;26.84;28.74;28,8;BCS1388054;1;2
009826;03.12.2020;17:28:02;Normalcharge  ;03.12.2018;FEY;;LION;49;14500;7200;224;6;97;100;8400;;4153;4152;1;12990;26.84;28.74;28,9;BCS1388054;1;2
009826;03.03.2021;08:17:08;Normalcharge  ;03.12.2018;FEY;;LION;49;14500;7200;192;6;95;98;8400;;4112;4112;1;13011;23.24;23.74;23,5;BCS1388054;1;3
009826;04.03.2021;07:53:50;Stop          ;03.12.2018;FEY;;LION;49;14500;7200;192;6;95;98;8400;;4112;4111;1;13004;26.24;28.74;31,6;BCS1388054;1;3
009826;04.04.2021;11:50:02;Normalcharge  ;03.12.2018;FEY;;LION;49;14500;7200;192;6;94;96;8400;;4097;4096;1;12980;25.04;24.84;27,7;BCS1388054;6;16
009826;04.04.2021;11:51:24;Stop          ;03.12.2018;FEY;;LION;49;14500;7200;192;6;94;96;8400;;4097;4096;1;12644;25.04;25.34;28,5;BCS1388054;6;16
009826;22.08.2021;11:07:50;Normalcharge  ;03.12.2018;FEY;;LION;49;14500;7200;192;6;78;80;8400;3000;3920;3920;1;12999;22.64;30.94;32,0;BCS1388054;1;6
009826;22.08.2021;11:08:23;Stop          ;03.12.2018;FEY;;LION;49;14500;7200;128;6;78;80;8400;3000;3958;3939;1;12624;22.74;31.74;32,4;BCS1388054;1;6

File: 009833.txt
Serialnumber ; Date ; Time ; Action ; Date of Manufacture ; Manufacturer ; Battery Name ; Device-Chemistry ; Specification-Info ; Design-Capacity [mAh] ; Design-Voltage [mV] ; Battery Status ; Cycle Count ; SOC [%] ; Relativ SOC[%] ; Desired Voltage [mV]; Desired Current [mA]; Cell Voltage 1 [mV] ; Cell Voltage 2 [mV] ; Max_Error [%] ; Busvoltage[mV] ; Battery Temperature [°C] ; Charger Temperature [°C] ; Batterysystem ; Case ; PLace
009833;07.12.2020;04:14:25;Cycle          ;03.12.2018;FEY;;LION;49;14500;7200;224;1;97;99;8400;;4129;4129;1;13001;25.44;28.24;30,3;BCS1388054;3;1
009833;08.12.2020;16:19:50;Stop           ;03.12.2018;FEY;;LION;49;14500;7200;224;2;96;99;8400;;4153;4152;1;13000;27.64;29.84;31,9;BCS1388054;3;1
009833;03.03.2021;08:17:17;Normalcharge  ;03.12.2018;FEY;;LION;49;14500;7200;192;2;92;95;8400;3000;4090;4089;1;12998;22.94;23.44;23,5;BCS1388054;2;15
009833;04.03.2021;07:53:46;Stop          ;03.12.2018;FEY;;LION;49;14500;7200;224;2;97;100;8400;;4147;4147;1;12991;26.24;28.34;31,6;BCS1388054;2;15
009833;04.04.2021;11:50:22;Normalcharge  ;03.12.2018;FEY;;LION;49;14500;7200;224;2;96;99;8400;;4133;4133;1;13003;24.94;25.94;27,9;BCS1388054;4;15
009833;04.04.2021;11:51:36;Stop          ;03.12.2018;FEY;;LION;49;14500;7200;224;2;96;99;8400;;4133;4133;1;12724;24.94;26.34;28,6;BCS1388054;4;15
009833;22.08.2021;11:37:25;Normalcharge  ;03.12.2018;FEY;;LION;49;14500;7200;192;3;28;31;8400;3000;3565;3565;1;13009;20.84;28.74;31,9;BCS1388054;4;10
009833;22.08.2021;11:38:13;Stop          ;03.12.2018;FEY;;LION;49;14500;7200;128;3;28;31;8400;3000;3641;3598;1;12630;20.94;30.94;32,1;BCS1388054;4;10
009833;25.08.2021;08:15:08;Charge to 60% ;03.12.2018;FEY;;LION;49;14500;7200;192;3;28;31;8400;3000;3568;3567;1;13006;30.24;32.34;33,4;BCS1388054;4;10
009833;25.08.2021;12:59:17;Stop          ;03.12.2018;FEY;;LION;49;14500;7200;192;3;55;60;8400;3000;3745;3746;1;13005;32.54;34.54;36,6;BCS1388054;4;10

File: 009852.txt
Serialnumber ; Date ; Time ; Action ; Date of Manufacture ; Manufacturer ; Battery Name ; Device-Chemistry ; Specification-Info ; Design-Capacity [mAh] ; Design-Voltage [mV] ; Battery Status ; Cycle Count ; SOC [%] ; Relativ SOC[%] ; Desired Voltage [mV]; Desired Current [mA]; Cell Voltage 1 [mV] ; Cell Voltage 2 [mV] ; Max_Error [%] ; Busvoltage[mV] ; Battery Temperature [°C] ; Charger Temperature [°C] ; Batterysystem ; Case ; PLace
009852;29.11.2020;04:25:09;Cycle         ;03.12.2018;FEY;;LION;49;14500;7200;192;2;79;81;8400;3000;3942;3942;1;12997;25.14;25.24;25,6;BCS1388054;1;4
009852;12.01.2021;04:17:28;Ladung auf 90% ;03.12.2018;FEY;;LION;49;14500;7200;224;3;95;99;8400;;4128;4128;1;13006;22.94;23.24;23,6;BCS1388054;3;7
009852;12.01.2021;04:57:30;Stop           ;03.12.2018;FEY;;LION;49;14500;7200;192;4;84;90;8400;3000;4044;4044;1;13001;27.04;30.64;31,5;BCS1388054;3;7
009852;12.01.2021;05:21:45;Cycle          ;03.12.2018;FEY;;LION;49;14500;7200;192;4;84;90;8400;3000;4052;4052;1;13003;27.14;28.44;30,4;BCS1388054;3;7
009852;13.01.2021;08:23:25;Stop           ;03.12.2018;FEY;;LION;49;14500;7200;224;5;95;100;8400;;4156;4157;1;13002;27.14;28.24;31,4;BCS1388054;3;7
009852;21.02.2021;13:43:48;Normalcharge  ;03.12.2018;FEY;;LION;49;14500;7200;192;5;63;65;8400;3000;3804;3804;1;13009;22.84;22.64;27,7;BCS1388054;3;4
009852;21.02.2021;20:44:52;Stop           ;03.12.2018;FEY;;LION;49;14500;7200;224;5;97;100;8400;;4154;4156;1;13004;26.54;27.04;31,2;BCS1388054;3;4
009852;06.04.2021;08:39:16;Normalcharge  ;03.12.2018;FEY;;LION;49;14500;7200;224;5;95;99;8400;;4129;4130;1;12994;21.24;25.74;28,1;BCS1388054;6;18
009852;06.04.2021;08:40:04;Stop          ;03.12.2018;FEY;;LION;49;14500;7200;224;5;95;99;8400;;4129;4130;1;12974;21.34;25.84;28,5;BCS1388054;6;18
009852;08.04.2021;07:58:44;Normalcharge  ;03.12.2018;FEY;;LION;49;14500;7200;224;5;95;99;8400;;4129;4130;1;12999;25.04;21.24;26,4;BCS1388054;6;18
009852;08.04.2021;07:59:23;Stop          ;03.12.2018;FEY;;LION;49;14500;7200;224;5;95;99;8400;;4128;4130;1;12997;25.04;25.84;26,7;BCS1388054;6;18
009852;08.04.2021;10:36:16;Normalcharge  ;03.12.2018;FEY;;LION;49;14500;7200;224;5;95;99;8400;;4128;4129;1;12996;25.24;26.24;28,6;BCS1388054;6;18
009852;08.04.2021;10:37:11;Stop          ;03.12.2018;FEY;;LION;49;14500;7200;224;5;95;99;8400;;4128;4130;1;12976;25.24;26.54;29,2;BCS1388054;6;18
009852;18.04.2021;08:34:33;Normalcharge  ;03.12.2018;FEY;;LION;49;14500;7200;192;5;95;98;8400;;4125;4126;1;12994;25.94;27.14;28,2;BCS1388054;6;18
009852;18.04.2021;08:34:41;Stop          ;03.12.2018;FEY;;LION;49;14500;7200;192;5;95;98;8400;;4125;4126;1;12994;26.04;27.24;28,2;BCS1388054;6;18
009852;04.08.2021;07:24:35;Normalcharge  ;03.12.2018;FEY;;LION;49;14500;7200;192;5;93;96;8400;;4093;4094;1;12991;29.94;30.94;31,5;BCS1388054;6;18
009852;04.08.2021;07:25:17;Stop          ;03.12.2018;FEY;;LION;49;14500;7200;192;5;93;96;8400;;4093;4094;1;12976;29.94;31.24;31,6;BCS1388054;6;18
009852;22.08.2021;11:08:08;Normalcharge  ;03.12.2018;FEY;;LION;49;14500;7200;192;5;93;96;8400;;4088;4089;1;13007;30.14;29.74;32,1;BCS1388054;5;4
009852;22.08.2021;11:08:41;Stop          ;03.12.2018;FEY;;LION;49;14500;7200;192;5;93;96;8400;;4088;4089;1;12843;30.04;30.04;32,5;BCS1388054;5;4