Folder: Battery_sort_V2/reader/backup_20211213 (part 4)

File: 009792.txt
Serialnumber ; Date ; Time ; Action ; Date of Manufacture ; Manufacturer ; Battery Name ; Device-Chemistry ; Specification-Info ; Design-Capacity [mAh] ; Design-Voltage [mV] ; Battery Status ; Cycle Count ; SOC [%] ; Relativ SOC[%] ; Desired Voltage [mV]; Desired Current [mA]; Cell Voltage 1 [mV] ; Cell Voltage 2 [mV] ; Max_Error [%] ; Busvoltage[mV] ; Battery Temperature [°C] ; Charger Temperature [°C] ; Batterysystem ; Case ; PLace
009792;07.12.2020;04:14:28;Cycle         ;04.12.2018;FEY;;LION;49;14500;7200;16576;3;99;98;;;4146;4147;1;13010;25.94;27.84;30,3;BCS1388054;4;10
009792;08.12.2020;16:19:56;Stop          ;04.12.2018;FEY;;LION;49;14500;7200;16576;3;99;98;;;4144;4144;1;13010;28.04;29.24;31,9;BCS1388054;4;10
009792;07.02.2021;08:46:49;Normalcharge  ;04.12.2018;FEY;;LION;49;14500;7200;16576;3;97;96;;;4120;4120;1;12998;24.04;25.84;29,2;BCS1388054;2;12
009792;07.02.2021;11:52:12;Stop          ;04.12.2018;FEY;;LION;49;14500;7200;16576;3;97;96;;;4120;4120;1;12999;26.04;26.94;29,7;BCS1388054;2;12
009792;03.03.2021;08:17:17;Normalcharge  ;04.12.2018;FEY;;LION;49;14500;7200;16576;3;95;95;;;4101;4101;1;12994;23.44;23.74;23,5;BCS1388054;2;7
009792;04.03.2021;07:53:46;Stop          ;04.12.2018;FEY;;LION;49;14500;7200;16576;3;95;95;;;4100;4101;1;12987;26.74;28.54;31,6;BCS1388054;2;7
009792;04.04.2021;11:49:55;Normalcharge  ;04.12.2018;FEY;;LION;49;14500;7200;16576;3;94;93;;;4087;4087;1;13026;25.14;25.44;27,5;BCS1388054;7;3
009792;04.04.2021;11:51:17;Stop          ;04.12.2018;FEY;;LION;49;14500;7200;16576;3;94;93;;;4087;4087;1;12752;25.14;26.34;28,4;BCS1388054;7;3
009792;22.08.2021;11:07:51;Normalcharge  ;04.12.2018;FEY;;LION;49;14500;7200;192;3;76;76;8400;3000;3901;3902;1;12990;23.04;30.04;32,0;BCS1388054;1;18
009792;22.08.2021;11:08:24;Stop          ;04.12.2018;FEY;;LION;49;14500;7200;128;3;76;76;8400;3000;3955;3927;1;12562;23.24;31.24;32,4;BCS1388054;1;18
009792;12.10.2021;12:40:28;Normalcharge  ;04.12.2018;FEY;;LION;49;14500;7200;192;3;76;76;8400;3000;3891;3891;1;13021;24.64;27.14;28,8;BCS1388054;7;11
009792;12.10.2021;12:40:39;Stop          ;04.12.2018;FEY;;LION;49;14500;7200;192;3;76;76;8400;3000;3891;3891;1;13014;24.64;27.24;28,9;BCS1388054;7;11
009792;12.10.2021;12:43:08;Normalcharge  ;04.12.2018;FEY;;LION;49;14500;7200;192;3;76;76;8400;3000;3891;3891;1;13021;24.84;27.14;29,2;BCS1388054;7;11
009792;12.10.2021;12:43:28;Stop          ;04.12.2018;FEY;;LION;49;14500;7200;192;3;76;76;8400;3000;3891;3891;1;13014;24.84;27.74;29,2;BCS1388054;7;11
009792;14.10.2021;12:40:18;Normalcharge  ;04.12.2018;FEY;;LION;49;14500;7200;192;3;76;76;8400;3000;3890;3891;1;13000;23.64;26.24;28,1;BCS1388054;6;9
009792;14.10.2021;12:41:59;Stop          ;04.12.2018;FEY;;LION;49;14500;7200;128;3;76;76;8400;3000;3986;3940;1;12633;23.84;29.84;28,5;BCS1388054;6;9

File: 009801.txt
Serialnumber ; Date ; Time ; Action ; Date of Manufacture ; Manufacturer ; Battery Name ; Device-Chemistry ; Specification-Info ; Design-Capacity [mAh] ; Design-Voltage [mV] ; Battery Status ; Cycle Count ; SOC [%] ; Relativ SOC[%] ; Desired Voltage [mV]; Desired Current [mA]; Cell Voltage 1 [mV] ; Cell Voltage 2 [mV] ; Max_Error [%] ; Busvoltage[mV] ; Battery Temperature [°C] ; Charger Temperature [°C] ; Batterysystem ; Case ; PLace
009801;07.12.2020;04:14:36;Cycle         ;03.12.2018;FEY;;LION;49;14500;7200;192;3;95;97;8400;;4131;4130;1;12986;25.54;28.64;30,3;BCS1388054;6;13
009801;08.12.2020;16:20:13;Stop          ;03.12.2018;FEY;;LION;49;14500;7200;192;3;95;97;8400;;4129;4128;1;12988;27.64;30.44;31,9;BCS1388054;6;13
009801;07.02.2021;08:46:49;Normalcharge  ;03.12.2018;FEY;;LION;49;14500;7200;192;3;94;96;8400;;4109;4108;1;12984;23.64;25.74;29,2;BCS1388054;2;18
009801;07.02.2021;11:52:12;Stop          ;03.12.2018;FEY;;LION;49;14500;7200;192;3;94;96;8400;;4109;4108;1;12986;25.54;27.44;29,7;BCS1388054;2;18
009801;03.03.2021;08:17:29;Normalcharge  ;03.12.2018;FEY;;LION;49;14500;7200;192;3;90;91;8400;3000;4067;4066;1;12997;22.94;23.84;23,5;BCS1388054;4;2
009801;03.03.2021;10:32:46;Stop          ;03.12.2018;FEY;;LION;49;14500;7200;224;3;99;100;8400;;4155;4154;1;12992;27.84;30.74;32,0;BCS1388054;4;2
009801;04.04.2021;11:50:28;Normalcharge  ;03.12.2018;FEY;;LION;49;14500;7200;192;4;51;53;8400;3000;3679;3680;1;13006;24.84;26.14;27,9;BCS1388054;3;10
009801;04.04.2021;11:51:43;Stop           ;03.12.2018;FEY;;LION;49;14500;7200;128;4;51;53;8400;3000;3767;3721;1;12773;24.94;28.94;28,6;BCS1388054;3;10
009801;05.04.2021;09:38:17;Charge to 60% ;03.12.2018;FEY;;LION;49;14500;7200;192;4;51;53;8400;3000;3682;3682;1;13005;24.84;26.34;26,4;BCS1388054;5;3
009801;05.04.2021;10:34:50;Charge to 60% ;03.12.2018;FEY;;LION;49;14500;7200;192;4;57;60;8400;3000;3754;3755;1;12912;27.34;30.34;32,4;BCS1388054;5;3
009801;05.04.2021;13:16:09;Stop          ;03.12.2018;FEY;;LION;49;14500;7200;192;4;57;60;8400;3000;3751;3753;1;13000;27.44;29.94;32,2;BCS1388054;5;3
009801;22.08.2021;11:07:50;Normalcharge  ;03.12.2018;FEY;;LION;49;14500;7200;192;4;42;43;8400;3000;3612;3612;1;12990;22.14;31.04;32,0;BCS1388054;1;8
009801;22.08.2021;11:08:23;Stop          ;03.12.2018;FEY;;LION;49;14500;7200;128;4;42;43;8400;3000;3670;3638;1;12613;22.24;32.14;32,4;BCS1388054;1;8
009801;25.08.2021;08:14:57;Charge to 60% ;03.12.2018;FEY;;LION;49;14500;7200;192;4;41;43;8400;3000;3614;3614;1;12990;30.04;30.54;33,2;BCS1388054;6;6
009801;25.08.2021;09:50:39;Stop          ;03.12.2018;FEY;;LION;49;14500;7200;192;4;57;60;8400;3000;3738;3738;1;12990;33.44;32.64;36,4;BCS1388054;6;6
009801;01.11.2021;09:52:05;Normalcharge  ;03.12.2018;FEY;;LION;49;14500;7200;192;4;52;54;8400;3000;3688;3688;1;13006;24.24;25.74;26,3;BCS1388054;4;7
009801;01.11.2021;09:53:34;Stop          ;03.12.2018;FEY;;LION;49;14500;7200;128;4;52;54;8400;3000;3779;3732;1;12617;24.34;29.24;27,1;BCS1388054;4;7
009801;01.11.2021;10:02:14;Normalcharge  ;03.12.2018;FEY;;LION;49;14500;7200;192;4;52;54;8400;3000;3691;3691;1;13000;24.64;28.24;29,5;BCS1388054;4;7
009801;01.11.2021;10:03:16;Stop          ;03.12.2018;FEY;;LION;49;14500;7200;128;4;52;55;8400;3000;3778;3732;1;12599;24.74;30.44;29,3;BCS1388054;4;7
009801;01.11.2021;10:18:21;Normalcharge  ;03.12.2018;FEY;;LION;49;14500;7200;192;4;52;55;8400;3000;3693;3693;1;13008;25.14;27.34;28,4;BCS1388054;4;7
009801;01.11.2021;10:19:03;Stop          ;03.12.2018;FEY;;LION;49;14500;7200;128;4;52;55;8400;3000;3775;3728;1;12591;25.14;29.14;28,2;BCS1388054;4;7
009801;01.11.2021;10:28:22;Normalcharge  ;03.12.2018;FEY;;LION;49;14500;7200;192;4;52;55;8400;3000;3693;3694;1;13002;25.34;27.54;27,9;BCS1388054;4;7
009801;01.11.2021;10:29:09;Stop          ;03.12.2018;FEY;;LION;49;14500;7200;128;4;52;55;8400;3000;3780;3730;1;12578;25.44;29.64;28,5;BCS1388054;4;7
009801;01.11.2021;10:32:29;Charge to 60% ;03.12.2018;FEY;;LION;49;14500;7200;192;4;52;55;8400;3000;3695;3695;1;13001;25.44;28.24;29,7;BCS1388054;4;7
009801;01.11.2021;15:19:33;Stop          ;03.12.2018;FEY;;LION;49;14500;7200;192;4;57;60;8400;3000;3747;3748;1;13000;28.44;30.64;32,7;BCS1388054;4;7

File: 009840.txt
Serialnumber ; Date ; Time ; Action ; Date of Manufacture ; Manufacturer ; Battery Name ; Device-Chemistry ; Specification-Info ; Design-Capacity [mAh] ; Design-Voltage [mV] ; Battery Status ; Cycle Count ; SOC [%] ; Relativ SOC[%] ; Desired Voltage [mV]; Desired Current [mA]; Cell Voltage 1 [mV] ; Cell Voltage 2 [mV] ; Max_Error [%] ; Busvoltage[mV] ; Battery Temperature [°C] ; Charger Temperature [°C] ; Batterysystem ; Case ; PLace
009840;07.12.2020;04:14:21;Cycle         ;03.12.2018;FEY;;LION;49;14500;7200;224;2;98;99;8400;;4146;4144;1;12997;25.14;28.04;30,3;BCS1388054;2;17
009840;08.12.2020;16:19:44;Stop          ;03.12.2018;FEY;;LION;49;14500;7200;224;3;98;100;8400;;4153;4150;1;12996;27.14;29.54;31,9;BCS1388054;2;17
009840;03.03.2021;08:17:40;Normalcharge  ;03.12.2018;FEY;;LION;49;14500;7200;192;3;69;71;8400;3000;3858;3856;1;13006;22.54;23.74;23,6;BCS1388054;6;9
009840;03.03.2021;11:56:52;Stop          ;03.12.2018;FEY;;LION;49;14500;7200;224;3;97;100;8400;;4159;4158;1;12998;28.14;29.44;31,7;BCS1388054;6;9
009840;06.04.2021;08:38:40;Normalcharge  ;03.12.2018;FEY;;LION;49;14500;7200;224;3;96;99;8400;;4133;4132;1;12996;20.74;25.24;28,1;BCS1388054;1;2
009840;06.04.2021;08:39:29;Stop          ;03.12.2018;FEY;;LION;49;14500;7200;224;3;96;99;8400;;4133;4132;1;12994;20.84;25.94;28,2;BCS1388054;1;2
009840;08.04.2021;07:57:52;Normalcharge  ;03.12.2018;FEY;;LION;49;14500;7200;224;3;96;99;8400;;4133;4131;1;12995;24.64;25.24;26,3;BCS1388054;1;2
009840;08.04.2021;07:59:50;Stop          ;03.12.2018;FEY;;LION;49;14500;7200;224;3;96;99;8400;;4133;4131;1;12941;24.64;26.74;26,8;BCS1388054;1;2
009840;08.04.2021;10:34:34;Normalcharge  ;03.12.2018;FEY;;LION;49;14500;7200;224;3;96;99;8400;;4133;4131;1;12990;25.64;28.24;28,1;BCS1388054;1;2
009840;08.04.2021;10:36:49;Stop          ;03.12.2018;FEY;;LION;49;14500;7200;224;3;96;99;8400;;4133;4131;1;12879;25.64;28.54;28,9;BCS1388054;1;2
009840;18.04.2021;08:33:24;Normalcharge  ;03.12.2018;FEY;;LION;49;14500;7200;224;3;95;99;8400;;4129;4127;1;12994;25.64;26.84;27,7;BCS1388054;1;2
009840;18.04.2021;08:33:29;Stop          ;03.12.2018;FEY;;LION;49;14500;7200;224;3;95;99;8400;;4129;4127;1;12990;25.64;26.94;27,7;BCS1388054;1;2
009840;04.08.2021;07:25:01;Normalcharge  ;03.12.2018;FEY;;LION;49;14500;7200;192;3;93;96;8400;;4095;4094;1;12987;30.04;31.54;31,5;BCS1388054;1;2
009840;04.08.2021;07:25:57;Stop          ;03.12.2018;FEY;;LION;49;14500;7200;192;3;93;96;8400;;4095;4094;1;12784;30.04;32.04;31,9;BCS1388054;1;2
009840;22.08.2021;11:08:05;Normalcharge  ;03.12.2018;FEY;;LION;49;14500;7200;192;3;86;88;8400;3000;4019;4017;1;12998;21.74;28.74;32,1;BCS1388054;4;9
009840;22.08.2021;11:08:37;Stop          ;03.12.2018;FEY;;LION;49;14500;7200;128;3;86;88;8400;3000;4052;4034;1;12681;21.84;29.74;32,5;BCS1388054;4;9
009840;14.10.2021;12:39:52;Normalcharge  ;03.12.2018;FEY;;LION;49;14500;7200;192;3;83;85;8400;3000;3979;3977;1;13011;24.64;26.24;27,9;BCS1388054;1;16
009840;14.10.2021;12:41:15;Stop          ;03.12.2018;FEY;;LION;49;14500;7200;128;3;83;85;8400;3000;4077;4028;1;12464;24.64;29.24;28,2;BCS1388054;1;16

File: 009842.txt
Serialnumber ; Date ; Time ; Action ; Date of Manufacture ; Manufacturer ; Battery Name ; Device-Chemistry ; Specification-Info ; Design-Capacity [mAh] ; Design-Voltage [mV] ; Battery Status ; Cycle Count ; SOC [%] ; Relativ SOC[%] ; Desired Voltage [mV]; Desired Current [mA]; Cell Voltage 1 [mV] ; Cell Voltage 2 [mV] ; Max_Error [%] ; Busvoltage[mV] ; Battery Temperature [°C] ; Charger Temperature [°C] ; Batterysystem ; Case ; PLace
009842;12.01.2021;04:17:33;Charge to 90% ;03.12.2018;FEY;;LION;49;14500;7200;192;3;97;97;8400;;4128;4127;1;13000;22.64;24.04;23,6;BCS1388054;4;3
009842;12.01.2021;04:57:16;Stop          ;03.12.2018;FEY;;LION;49;14500;7200;192;3;91;90;8400;3000;4060;4059;1;12994;26.64;30.44;31,6;BCS1388054;4;3
009842;12.01.2021;05:21:49;Cycle         ;03.12.2018;FEY;;LION;49;14500;7200;192;3;91;90;8400;3000;4065;4065;1;12993;26.74;28.94;30,4;BCS1388054;4;3
009842;13.01.2021;08:19:19;Stop          ;03.12.2018;FEY;;LION;49;14500;7200;224;4;98;100;8400;;4157;4159;1;12994;26.84;28.84;30,7;BCS1388054;4;3
009842;21.02.2021;13:43:32;Normalcharge  ;03.12.2018;FEY;;LION;49;14500;7200;192;5;41;42;8400;3000;3609;3610;1;13002;22.74;25.64;27,5;BCS1388054;2;10
009842;21.02.2021;19:27:00;Stop          ;03.12.2018;FEY;;LION;49;14500;7200;224;5;98;100;8400;;4160;4164;1;13001;26.84;28.64;31,1;BCS1388054;2;10
009842;04.04.2021;11:50:28;Normalcharge  ;03.12.2018;FEY;;LION;49;14500;7200;224;5;98;99;8400;;4129;4131;1;13003;24.54;24.94;27,9;BCS1388054;3;11
009842;04.04.2021;11:51:43;Stop           ;03.12.2018;FEY;;LION;49;14500;7200;224;5;98;99;8400;;4129;4131;1;12790;24.54;25.04;28,6;BCS1388054;3;11

File: 009857.txt
Serialnumber ; Date ; Time ; Action ; Date of Manufacture ; Manufacturer ; Battery Name ; Device-Chemistry ; Specification-Info ; Design-Capacity [mAh] ; Design-Voltage [mV] ; Battery Status ; Cycle Count ; SOC [%] ; Relativ SOC[%] ; Desired Voltage [mV]; Desired Current [mA]; Cell Voltage 1 [mV] ; Cell Voltage 2 [mV] ; Max_Error [%] ; Busvoltage[mV] ; Battery Temperature [°C] ; Charger Temperature [°C] ; Batterysystem ; Case ; PLace
009857;10.12.2019;15:28:47;Ladung auf 30% ;03.12.2018;FEY;;LION;49;14500;7200;224;47;93;100;8400;;4131;4129;1;13005;22.54;24.24;27,1;BCS1388054;3;12
009857;10.12.2019;20:47:21;Stop           ;03.12.2018;FEY;;LION;49;14500;7200;192;48;29;30;8400;3000;3554;3553;1;13005;32.84;32.54;33,5;BCS1388054;3;12
009857;11.12.2019;08:48:36;Fastcharge    ;03.12.2018;FEY;;LION;49;14500;7200;192;48;29;30;8400;3000;3567;3567;1;13003;26.04;27.24;31,9;BCS1388054;3;12
009857;11.12.2019;13:39:41;Stop           ;03.12.2018;FEY;;LION;49;14500;7200;224;48;95;100;8400;;4163;4163;1;13004;29.14;29.44;32,5;BCS1388054;3;12
009857;11.12.2019;15:46:24;Ladung auf 10% ;03.12.2018;FEY;;LION;49;14500;7200;224;48;97;100;8400;;4154;4153;1;13004;26.74;27.64;31,4;BCS1388054;3;12
009857;11.12.2019;22:48:44;Stop           ;03.12.2018;FEY;;LION;49;14500;7200;192;49;10;10;8400;3000;3340;3340;1;13005;33.44;33.84;33,6;BCS1388054;3;12
009857;12.12.2019;08:44:58;Normalcharge  ;03.12.2018;FEY;;LION;49;14500;7200;192;49;9;10;8400;3000;3361;3361;1;13003;26.24;27.34;31,9;BCS1388054;3;12
009857;12.12.2019;16:39:24;Stop           ;03.12.2018;FEY;;LION;49;14500;7200;224;49;97;100;8400;;4164;4164;1;13004;28.44;29.04;31,7;BCS1388054;3;12
009857;13.12.2019;10:47:57;Ladung auf 10% ;03.12.2018;FEY;;LION;49;14500;7200;224;49;97;100;8400;;4149;4148;1;13005;26.24;27.44;32,0;BCS1388054;3;12
009857;13.12.2019;15:42:18;Stop           ;03.12.2018;FEY;;LION;49;14500;7200;192;50;35;37;8400;3000;3503;3554;1;13552;32.04;34.34;34,6;BCS1388054;3;12
009857;13.12.2019;15:42:20;Cycle          ;03.12.2018;FEY;;LION;49;14500;7200;192;50;35;37;8400;3000;3503;3554;1;13003;32.04;34.34;34,6;BCS1388054;3;12
009857;14.12.2019;22:36:33;Stop           ;03.12.2018;FEY;;LION;49;14500;7200;224;51;94;99;8400;;4152;4152;1;13003;26.24;27.34;31,6;BCS1388054;3;12
009857;16.12.2019;07:43:10;Ladung auf 10% ;03.12.2018;FEY;;LION;49;14500;7200;224;51;94;100;8400;;4146;4146;1;13004;25.94;26.64;31,9;BCS1388054;3;12
009857;16.12.2019;14:34:27;Stop           ;03.12.2018;FEY;;LION;49;14500;7200;192;52;10;10;8400;3000;3358;3358;1;13005;32.04;32.04;32,5;BCS1388054;3;12
009857;16.12.2019;14:44:07;Ladung auf 90% ;03.12.2018;FEY;;LION;49;14500;7200;192;52;10;10;8400;3000;3366;3366;1;13005;31.14;30.44;31,7;BCS1388054;3;12
009857;16.12.2019;20:48:39;Stop           ;03.12.2018;FEY;;LION;49;14500;7200;128;52;85;90;8400;3000;4067;4070;1;13005;30.84;30.94;31,9;BCS1388054;3;12
009857;17.12.2019;08:37:44;Fastcharge    ;03.12.2018;FEY;;LION;49;14500;7200;192;52;85;90;8400;3000;4048;4049;1;13005;26.04;27.14;31,5;BCS1388054;3;12
009857;17.12.2019;10:30:44;Stop           ;03.12.2018;FEY;;LION;49;14500;7200;224;52;95;100;8400;;4161;4161;1;13006;27.44;28.24;31,4;BCS1388054;3;12
009857;17.12.2019;13:38:28;Ladung auf 10% ;03.12.2018;FEY;;LION;49;14500;7200;224;52;95;100;8400;;4151;4150;1;13006;26.24;27.34;30,8;BCS1388054;3;12
009857;17.12.2019;20:32:04;Stop           ;03.12.2018;FEY;;LION;49;14500;7200;192;53;10;10;8400;3000;3358;3358;1;13005;33.44;33.24;34,6;BCS1388054;3;12
009857;18.12.2019;08:31:22;Fastcharge    ;03.12.2018;FEY;;LION;49;14500;7200;192;53;10;10;8400;3000;3373;3373;1;13003;26.14;27.34;31,6;BCS1388054;3;12
009857;18.12.2019;14:26:33;Stop           ;03.12.2018;FEY;;LION;49;14500;7200;224;53;95;100;8400;;4162;4162;1;13004;29.14;29.64;32,5;BCS1388054;3;12
009857;19.12.2019;08:23:54;Ladung auf 60% ;03.12.2018;FEY;;LION;49;14500;7200;224;53;96;100;8400;;4149;4149;1;13004;26.04;27.14;31,6;BCS1388054;3;12
009857;19.12.2019;11:28:29;Stop           ;03.12.2018;FEY;;LION;49;14500;7200;192;54;58;60;8400;3000;3755;3756;1;13005;33.44;34.84;35,1;BCS1388054;3;12
009857;19.12.2019;12:16:41;Cycle          ;03.12.2018;FEY;;LION;49;14500;7200;192;54;58;60;8400;3000;3779;3780;1;13005;29.44;29.54;32,7;BCS1388054;3;12
009857;20.12.2019;17:23:28;Stop           ;03.12.2018;FEY;;LION;49;14500;7200;224;55;94;100;8400;;4153;4152;1;13004;26.34;27.44;31,9;BCS1388054;3;12
009857;06.01.2020;06:34:46;Ladung auf 60% ;03.12.2018;FEY;;LION;49;14500;7200;224;55;93;99;8400;;4123;4121;1;13005;26.14;27.14;31,9;BCS1388054;3;12
009857;06.01.2020;09:29:20;Stop           ;03.12.2018;FEY;;LION;49;14500;7200;192;55;57;60;8400;3000;3761;3762;1;13005;32.64;33.04;34,2;BCS1388054;3;12
009857;06.01.2020;09:50:34;Fastcharge    ;03.12.2018;FEY;;LION;49;14500;7200;192;55;57;60;8400;3000;3778;3779;1;13006;30.74;30.24;32,7;BCS1388054;3;12
009857;06.01.2020;13:06:26;Stop           ;03.12.2018;FEY;;LION;49;14500;7200;224;55;95;100;8400;;4163;4165;1;13006;28.74;29.14;32,1;BCS1388054;3;12