Folder: Battery_sort_V2/reader/backup_20211213 (part 2)

File: 009551.txt
Serialnumber ; Date ; Time ; Action ; Date of Manufacture ; Manufacturer ; Battery Name ; Device-Chemistry ; Specification-Info ; Design-Capacity [mAh] ; Design-Voltage [mV] ; Battery Status ; Cycle Count ; SOC [%] ; Relativ SOC[%] ; Desired Voltage [mV]; Desired Current [mA]; Cell Voltage 1 [mV] ; Cell Voltage 2 [mV] ; Max_Error [%] ; Busvoltage[mV] ; Battery Temperature [°C] ; Charger Temperature [°C] ; Batterysystem ; Case ; PLace
009551;12.01.2021;04:17:22;Charge to 90% ;03.12.2018;FEY;;LION;49;14500;7200;16576;5;97;98;;;4129;4128;1;13009;22.94;23.84;23,5;BCS1388054;2;8
009551;12.01.2021;04:54:21;Stop          ;03.12.2018;FEY;;LION;49;14500;7200;192;5;90;90;8400;3000;4048;4046;1;13001;26.34;31.64;31,9;BCS1388054;2;8
009551;12.01.2021;05:21:40;Cycle         ;03.12.2018;FEY;;LION;49;14500;7200;192;5;90;90;8400;3000;4060;4059;1;13002;26.74;28.74;30,6;BCS1388054;2;8
009551;13.01.2021;08:20:19;Stop          ;03.12.2018;FEY;;LION;49;14500;7200;224;6;97;100;8400;;4156;4156;1;13002;27.04;28.54;30,8;BCS1388054;2;8
009551;21.02.2021;13:44:56;Normalcharge  ;03.12.2018;FEY;;LION;49;14500;7200;192;7;64;66;8400;3000;3814;3813;1;13001;22.74;23.74;27,7;BCS1388054;5;7
009551;21.02.2021;19:31:36;Stop          ;03.12.2018;FEY;;LION;49;14500;7200;224;7;98;100;8400;;4154;4152;1;12998;27.14;29.14;30,6;BCS1388054;5;7
009551;06.04.2021;08:39:16;Normalcharge  ;03.12.2018;FEY;;LION;49;14500;7200;224;7;96;99;8400;;4130;4128;1;13002;21.04;25.64;28,1;BCS1388054;6;14
009551;06.04.2021;08:40:04;Stop          ;03.12.2018;FEY;;LION;49;14500;7200;224;7;96;99;8400;;4130;4128;1;12968;21.04;25.94;28,5;BCS1388054;6;14
009551;08.04.2021;07:58:44;Normalcharge  ;03.12.2018;FEY;;LION;49;14500;7200;224;7;96;99;8400;;4129;4128;1;13000;24.94;25.04;26,4;BCS1388054;6;14
009551;08.04.2021;07:59:23;Stop          ;03.12.2018;FEY;;LION;49;14500;7200;224;7;96;99;8400;;4129;4128;1;12999;25.04;25.64;26,7;BCS1388054;6;14
009551;08.04.2021;10:36:16;Normalcharge  ;03.12.2018;FEY;;LION;49;14500;7200;224;7;96;99;8400;;4129;4128;1;13003;25.24;26.34;28,6;BCS1388054;6;14
009551;08.04.2021;10:37:11;Stop          ;03.12.2018;FEY;;LION;49;14500;7200;224;7;96;99;8400;;4129;4128;1;12970;25.24;26.74;29,2;BCS1388054;6;14
009551;18.04.2021;08:34:33;Normalcharge  ;03.12.2018;FEY;;LION;49;14500;7200;224;7;96;99;8400;;4126;4124;1;12998;25.94;27.14;28,2;BCS1388054;6;14
009551;18.04.2021;08:34:41;Stop          ;03.12.2018;FEY;;LION;49;14500;7200;224;7;96;99;8400;;4126;4124;1;12995;25.94;27.34;28,2;BCS1388054;6;14
009551;04.08.2021;07:24:35;Normalcharge  ;03.12.2018;FEY;;LION;49;14500;7200;192;7;94;96;8400;;4096;4094;1;12994;29.94;30.74;31,5;BCS1388054;6;14
009551;04.08.2021;07:25:17;Stop          ;03.12.2018;FEY;;LION;49;14500;7200;192;7;94;96;8400;;4095;4094;1;12971;29.94;31.04;31,6;BCS1388054;6;14
009551;22.08.2021;11:07:59;Normalcharge  ;03.12.2018;FEY;;LION;49;14500;7200;192;7;74;77;8400;3000;3907;3906;1;12998;22.84;29.64;32,1;BCS1388054;3;10
009551;22.08.2021;11:08:33;Stop           ;03.12.2018;FEY;;LION;49;14500;7200;128;7;74;77;8400;3000;3968;3934;1;12681;22.84;30.94;32,4;BCS1388054;3;10
009551;12.10.2021;12:40:28;Normalcharge  ;03.12.2018;FEY;;LION;49;14500;7200;192;8;9;9;8400;3000;3337;3335;1;13013;23.84;26.54;28,8;BCS1388054;7;15
009551;12.10.2021;12:40:39;Stop          ;03.12.2018;FEY;;LION;49;14500;7200;192;8;9;9;8400;3000;3337;3336;1;13008;23.84;26.54;28,9;BCS1388054;7;15
009551;12.10.2021;12:43:08;Normalcharge  ;03.12.2018;FEY;;LION;49;14500;7200;192;8;9;9;8400;3000;3337;3335;1;13017;23.94;26.54;29,2;BCS1388054;7;15
009551;12.10.2021;12:43:28;Stop          ;03.12.2018;FEY;;LION;49;14500;7200;192;8;9;9;8400;3000;3337;3335;1;13012;23.94;27.14;29,2;BCS1388054;7;15
009551;14.10.2021;12:40:18;Normalcharge  ;03.12.2018;FEY;;LION;49;14500;7200;192;8;8;9;8400;3000;3340;3339;1;12988;23.54;26.84;28,1;BCS1388054;6;13
009551;14.10.2021;12:41:59;Stop          ;03.12.2018;FEY;;LION;49;14500;7200;128;8;9;9;8400;3000;3465;3419;1;12627;23.64;31.04;28,5;BCS1388054;6;13
009551;01.11.2021;09:51:56;Normalcharge  ;03.12.2018;FEY;;LION;49;14500;7200;192;8;9;9;8400;3000;3348;3346;1;12991;25.64;26.74;26,3;BCS1388054;6;13
009551;01.11.2021;09:53:46;Stop          ;03.12.2018;FEY;;LION;49;14500;7200;128;8;9;10;8400;3000;3469;3424;1;12616;25.74;31.24;27,3;BCS1388054;6;13
009551;01.11.2021;10:02:24;Normalcharge  ;03.12.2018;FEY;;LION;49;14500;7200;192;8;9;10;8400;3000;3352;3351;1;12984;25.84;28.94;29,5;BCS1388054;6;13
009551;01.11.2021;10:03:07;Stop          ;03.12.2018;FEY;;LION;49;14500;7200;128;8;9;10;8400;3000;3467;3420;1;12611;25.84;30.94;29,3;BCS1388054;6;13
009551;01.11.2021;10:27:30;Normalcharge  ;03.12.2018;FEY;;LION;49;14500;7200;192;8;9;10;8400;3000;3352;3351;1;12988;26.14;27.44;27,8;BCS1388054;6;13
009551;01.11.2021;10:29:18;Stop          ;03.12.2018;FEY;;LION;49;14500;7200;128;8;10;10;8400;3000;3473;3425;1;12607;26.14;31.94;28,6;BCS1388054;6;13
009551;01.11.2021;10:32:43;Charge to 60% ;03.12.2018;FEY;;LION;49;14500;7200;192;8;10;10;8400;3000;3358;3356;1;12983;26.24;21.34;29,7;BCS1388054;6;13
009551;01.11.2021;14:25:59;Stop          ;03.12.2018;FEY;;LION;49;14500;7200;128;8;58;60;8400;3000;3769;3769;1;12986;30.34;36.94;32,6;BCS1388054;6;13

File: 009552.txt
Serialnumber ; Date ; Time ; Action ; Date of Manufacture ; Manufacturer ; Battery Name ; Device-Chemistry ; Specification-Info ; Design-Capacity [mAh] ; Design-Voltage [mV] ; Battery Status ; Cycle Count ; SOC [%] ; Relativ SOC[%] ; Desired Voltage [mV]; Desired Current [mA]; Cell Voltage 1 [mV] ; Cell Voltage 2 [mV] ; Max_Error [%] ; Busvoltage[mV] ; Battery Temperature [°C] ; Charger Temperature [°C] ; Batterysystem ; Case ; PLace
009552;10.12.2019;15:28:41;Charge to 30% ;03.12.2018;FEY;;LION;49;14500;7200;224;49;93;100;8400;;4133;4132;1;13006;22.64;24.44;27,1;BCS1388054;2;14
009552;10.12.2019;20:48:37;Stop          ;03.12.2018;FEY;;LION;49;14500;7200;192;50;29;30;8400;3000;3558;3558;1;13002;33.74;35.94;33,2;BCS1388054;2;14
009552;11.12.2019;08:48:24;Fastcharge    ;03.12.2018;FEY;;LION;49;14500;7200;192;50;29;30;8400;3000;3568;3568;1;13004;26.04;28.04;31,9;BCS1388054;2;14
009552;11.12.2019;13:39:47;Stop          ;03.12.2018;FEY;;LION;49;14500;7200;224;50;95;100;8400;;4164;4165;1;13004;30.64;32.24;32,5;BCS1388054;2;14
009552;11.12.2019;15:46:18;Charge to 10% ;03.12.2018;FEY;;LION;49;14500;7200;224;50;96;100;8400;;4154;4154;1;13004;27.04;28.74;31,4;BCS1388054;2;14
009552;11.12.2019;22:49:04;Stop          ;03.12.2018;FEY;;LION;49;14500;7200;192;51;10;10;8400;3000;3349;3349;1;13002;34.74;37.54;33,6;BCS1388054;2;14
009552;12.12.2019;08:44:52;Normalcharge  ;03.12.2018;FEY;;LION;49;14500;7200;192;51;9;10;8400;3000;3362;3362;1;13003;26.24;28.24;31,9;BCS1388054;2;14
009552;12.12.2019;16:40:06;Stop          ;03.12.2018;FEY;;LION;49;14500;7200;224;51;96;100;8400;;4163;4164;1;13004;29.54;31.54;31,7;BCS1388054;2;14
009552;13.12.2019;10:47:50;Charge to 10% ;03.12.2018;FEY;;LION;49;14500;7200;224;51;96;100;8400;;4149;4149;1;13005;26.24;28.34;32,0;BCS1388054;2;14
009552;13.12.2019;15:42:08;Cycle         ;03.12.2018;FEY;;LION;49;14500;7200;192;52;35;37;8400;3000;3502;3553;1;13567;33.34;42.14;34,6;BCS1388054;2;14
009552;13.12.2019;15:42:08;Stop          ;03.12.2018;FEY;;LION;49;14500;7200;192;52;35;37;8400;3000;3502;3553;1;13567;33.34;42.14;34,6;BCS1388054;2;14
009552;14.12.2019;22:48:51;Stop          ;03.12.2018;FEY;;LION;49;14500;7200;224;53;93;99;8400;;4151;4150;1;13004;26.44;28.34;32,0;BCS1388054;2;14
009552;16.12.2019;07:43:06;Charge to 10% ;03.12.2018;FEY;;LION;49;14500;7200;224;53;94;100;8400;;4145;4144;1;13005;25.94;27.74;31,9;BCS1388054;2;14
009552;16.12.2019;14:37:54;Stop          ;03.12.2018;FEY;;LION;49;14500;7200;192;54;10;10;8400;3000;3363;3363;1;13004;33.14;34.44;32,4;BCS1388054;2;14
009552;16.12.2019;14:44:03;Charge to 90% ;03.12.2018;FEY;;LION;49;14500;7200;192;54;10;10;8400;3000;3366;3365;1;13005;32.74;32.54;31,9;BCS1388054;2;14
009552;16.12.2019;20:51:09;Stop          ;03.12.2018;FEY;;LION;49;14500;7200;192;54;85;90;8400;3000;4056;4058;1;13006;32.24;33.84;31,6;BCS1388054;2;14
009552;17.12.2019;08:37:41;Fastcharge    ;03.12.2018;FEY;;LION;49;14500;7200;192;54;85;90;8400;3000;4046;4047;1;13003;26.04;28.04;31,6;BCS1388054;2;14
009552;17.12.2019;10:30:36;Stop          ;03.12.2018;FEY;;LION;49;14500;7200;224;54;95;100;8400;;4161;4164;1;13005;28.04;30.64;31,5;BCS1388054;2;14
009552;17.12.2019;13:38:22;Charge to 10% ;03.12.2018;FEY;;LION;49;14500;7200;224;54;95;100;8400;;4150;4151;1;13005;26.44;28.24;30,8;BCS1388054;2;14
009552;17.12.2019;20:36:00;Stop          ;03.12.2018;FEY;;LION;49;14500;7200;192;56;10;10;8400;3000;3362;3362;1;13003;34.54;35.64;33,6;BCS1388054;2;14
009552;18.12.2019;08:31:17;Fastcharge    ;03.12.2018;FEY;;LION;49;14500;7200;192;56;10;10;8400;3000;3371;3372;1;13005;26.14;28.24;31,6;BCS1388054;2;14
009552;18.12.2019;14:28:27;Stop          ;03.12.2018;FEY;;LION;49;14500;7200;224;56;95;100;8400;;4162;4166;1;13005;30.64;31.74;32,0;BCS1388054;2;14
009552;19.12.2019;08:23:50;Charge to 60% ;03.12.2018;FEY;;LION;49;14500;7200;224;56;96;100;8400;;4149;4152;1;13005;26.04;28.04;31,5;BCS1388054;2;14
009552;19.12.2019;11:32:11;Stop          ;03.12.2018;FEY;;LION;49;14500;7200;192;56;58;60;8400;3000;3770;3772;1;13004;34.14;36.34;34,0;BCS1388054;2;14
009552;19.12.2019;12:16:37;Cycle         ;03.12.2018;FEY;;LION;49;14500;7200;192;56;58;60;8400;3000;3780;3782;1;13005;30.94;30.84;32,7;BCS1388054;2;14
009552;20.12.2019;17:35:47;Stop          ;03.12.2018;FEY;;LION;49;14500;7200;224;57;94;100;8400;;4152;4152;1;13006;26.44;28.14;31,1;BCS1388054;2;14
009552;06.01.2020;06:34:42;Charge to 60% ;03.12.2018;FEY;;LION;49;14500;7200;224;57;93;99;8400;;4123;4122;1;13006;26.14;28.04;31,9;BCS1388054;2;14
009552;06.01.2020;09:32:11;Stop          ;03.12.2018;FEY;;LION;49;14500;7200;192;58;57;60;8400;3000;3770;3770;1;13005;33.34;35.54;33,2;BCS1388054;2;14
009552;06.01.2020;09:50:30;Fastcharge    ;03.12.2018;FEY;;LION;49;14500;7200;192;58;57;60;8400;3000;3779;3779;1;13006;32.04;31.64;32,7;BCS1388054;2;14
009552;06.01.2020;13:08:34;Stop          ;03.12.2018;FEY;;LION;49;14500;7200;224;58;94;100;8400;;4161;4162;1;13005;30.04;31.04;31,6;BCS1388054;2;14

File: 009561.txt
Serialnumber ; Date ; Time ; Action ; Date of Manufacture ; Manufacturer ; Battery Name ; Device-Chemistry ; Specification-Info ; Design-Capacity [mAh] ; Design-Voltage [mV] ; Battery Status ; Cycle Count ; SOC [%] ; Relativ SOC[%] ; Desired Voltage [mV]; Desired Current [mA]; Cell Voltage 1 [mV] ; Cell Voltage 2 [mV] ; Max_Error [%] ; Busvoltage[mV] ; Battery Temperature [°C] ; Charger Temperature [°C] ; Batterysystem ; Case ; PLace
009561;10.12.2019;15:28:34;Charge to 30% ;03.12.2018;FEY;;LION;49;14500;7200;224;48;93;99;8400;;4109;4109;1;13003;23.14;27.74;27,1;BCS1388054;1;15
009561;10.12.2019;20:42:17;Stop          ;03.12.2018;FEY;;LION;49;14500;7200;192;49;29;30;8400;3000;3546;3548;1;12998;32.74;41.14;34,1;BCS1388054;1;15
009561;11.12.2019;08:48:18;Fastcharge    ;03.12.2018;FEY;;LION;49;14500;7200;192;49;29;30;8400;3000;3566;3567;1;13002;25.74;29.44;31,9;BCS1388054;1;15
009561;11.12.2019;13:40:21;Stop          ;03.12.2018;FEY;;LION;49;14500;7200;224;49;96;100;8400;;4163;4164;1;13001;29.54;32.74;32,4;BCS1388054;1;15
009561;11.12.2019;15:45:57;Charge to 30% ;03.12.2018;FEY;;LION;49;14500;7200;224;49;97;100;8400;;4153;4153;1;13002;26.64;29.84;31,5;BCS1388054;1;15
009561;11.12.2019;15:46:00;Stop          ;03.12.2018;FEY;;LION;49;14500;7200;224;49;97;100;8400;;4153;4153;1;13001;26.64;29.84;31,5;BCS1388054;1;15
009561;11.12.2019;15:46:13;Charge to 10% ;03.12.2018;FEY;;LION;49;14500;7200;224;49;97;100;8400;;4153;4153;1;13001;26.64;29.84;31,5;BCS1388054;1;15
009561;11.12.2019;22:50:20;Stop          ;03.12.2018;FEY;;LION;49;14500;7200;192;50;10;10;8400;3000;3344;3347;1;13000;33.64;38.54;33,4;BCS1388054;1;15
009561;12.12.2019;08:44:40;Normalcharge  ;03.12.2018;FEY;;LION;49;14500;7200;192;50;9;10;8400;3000;3361;3362;1;13001;25.94;29.64;31,9;BCS1388054;1;15
009561;12.12.2019;16:39:22;Stop          ;03.12.2018;FEY;;LION;49;14500;7200;224;50;97;100;8400;;4163;4163;1;13001;28.74;32.44;31,7;BCS1388054;1;15
009561;13.12.2019;10:47:47;Charge to 10% ;03.12.2018;FEY;;LION;49;14500;7200;224;50;97;100;8400;;4148;4147;1;13001;25.94;29.64;32,0;BCS1388054;1;15
009561;13.12.2019;15:41:58;Stop          ;03.12.2018;FEY;;LION;49;14500;7200;192;51;36;37;8400;3000;3504;3556;1;13632;32.34;42.04;34,6;BCS1388054;1;15
009561;13.12.2019;15:42:01;Cycle         ;03.12.2018;FEY;;LION;49;14500;7200;192;51;36;37;8400;3000;3504;3556;1;12999;32.34;42.04;34,6;BCS1388054;1;15
009561;14.12.2019;22:41:25;Stop          ;03.12.2018;FEY;;LION;49;14500;7200;224;52;94;99;8400;;4151;4150;1;13001;26.14;29.54;31,9;BCS1388054;1;15
009561;16.12.2019;07:43:03;Charge to 10% ;03.12.2018;FEY;;LION;49;14500;7200;224;52;95;100;8400;;4145;4144;1;13002;25.74;29.04;31,9;BCS1388054;1;15
009561;16.12.2019;14:36:13;Stop          ;03.12.2018;FEY;;LION;49;14500;7200;192;53;10;10;8400;3000;3356;3357;1;12999;32.34;38.34;32,4;BCS1388054;1;15
009561;16.12.2019;14:44:00;Charge to 90% ;03.12.2018;FEY;;LION;49;14500;7200;192;53;10;10;8400;3000;3364;3365;1;13000;31.84;32.84;31,7;BCS1388054;1;15
009561;16.12.2019;20:50:03;Stop          ;03.12.2018;FEY;;LION;49;14500;7200;128;53;85;90;8400;3000;4065;4068;1;13002;31.44;36.74;31,7;BCS1388054;1;15
009561;17.12.2019;08:37:37;Fastcharge    ;03.12.2018;FEY;;LION;49;14500;7200;192;53;85;90;8400;3000;4045;4046;1;13002;25.74;29.34;31,6;BCS1388054;1;15
009561;17.12.2019;10:31:11;Stop          ;03.12.2018;FEY;;LION;49;14500;7200;224;53;96;100;8400;;4159;4160;1;13001;27.34;30.84;31,4;BCS1388054;1;15
009561;17.12.2019;13:38:19;Charge to 10% ;03.12.2018;FEY;;LION;49;14500;7200;224;53;96;100;8400;;4148;4149;1;13002;26.04;29.34;30,8;BCS1388054;1;15
009561;17.12.2019;20:33:50;Stop          ;03.12.2018;FEY;;LION;49;14500;7200;192;55;10;10;8400;3000;3357;3360;1;12999;33.64;38.24;34,2;BCS1388054;1;15
009561;18.12.2019;08:31:14;Fastcharge    ;03.12.2018;FEY;;LION;49;14500;7200;192;55;10;10;8400;3000;3371;3373;1;13001;25.94;29.44;31,6;BCS1388054;1;15
009561;18.12.2019;14:28:33;Stop          ;03.12.2018;FEY;;LION;49;14500;7200;224;55;96;100;8400;;4163;4165;1;13000;29.64;32.54;31,9;BCS1388054;1;15
009561;19.12.2019;08:23:45;Charge to 60% ;03.12.2018;FEY;;LION;49;14500;7200;224;55;97;100;8400;;4148;4150;1;13002;25.74;29.34;31,5;BCS1388054;1;15
009561;19.12.2019;11:29:32;Stop          ;03.12.2018;FEY;;LION;49;14500;7200;192;55;58;60;8400;3000;3756;3761;1;12999;33.14;40.54;34,9;BCS1388054;1;15
009561;19.12.2019;12:16:33;Cycle         ;03.12.2018;FEY;;LION;49;14500;7200;192;55;58;60;8400;3000;3777;3782;1;13000;29.84;31.54;32,7;BCS1388054;1;15
009561;20.12.2019;17:26:19;Stop          ;03.12.2018;FEY;;LION;49;14500;7200;224;56;95;100;8400;;4151;4152;1;13002;26.04;29.44;31,2;BCS1388054;1;15
009561;06.01.2020;06:34:38;Charge to 60% ;03.12.2018;FEY;;LION;49;14500;7200;224;56;94;99;8400;;4121;4122;1;13003;25.84;29.34;31,9;BCS1388054;1;15
009561;06.01.2020;09:30:30;Stop          ;03.12.2018;FEY;;LION;49;14500;7200;192;57;57;60;8400;3000;3758;3762;1;13000;32.34;39.04;33,9;BCS1388054;1;15
009561;06.01.2020;09:50:27;Fastcharge    ;03.12.2018;FEY;;LION;49;14500;7200;192;57;57;60;8400;3000;3774;3779;1;13002;30.94;32.14;32,6;BCS1388054;1;15
009561;06.01.2020;13:07:36;Stop          ;03.12.2018;FEY;;LION;49;14500;7200;224;57;95;100;8400;;4163;4164;1;13003;29.04;32.54;31,7;BCS1388054;1;15

File: 009590.txt
Serialnumber ; Date ; Time ; Action ; Date of Manufacture ; Manufacturer ; Battery Name ; Device-Chemistry ; Specification-Info ; Design-Capacity [mAh] ; Design-Voltage [mV] ; Battery Status ; Cycle Count ; SOC [%] ; Relativ SOC[%] ; Desired Voltage [mV]; Desired Current [mA]; Cell Voltage 1 [mV] ; Cell Voltage 2 [mV] ; Max_Error [%] ; Busvoltage[mV] ; Battery Temperature [°C] ; Charger Temperature [°C] ; Batterysystem ; Case ; PLace
009590;12.01.2021;04:17:33;Charge to 90% ;04.12.2018;FEY;;LION;49;14500;7200;16576;3;96;96;;;4113;4112;1;13005;22.94;23.34;23,6;BCS1388054;4;15
009590;12.01.2021;04:57:16;Stop          ;04.12.2018;FEY;;LION;49;14500;7200;192;3;91;90;8400;3000;4060;4059;1;13000;26.34;29.34;31,6;BCS1388054;4;15
009590;12.01.2021;05:21:49;Cycle         ;04.12.2018;FEY;;LION;49;14500;7200;192;3;91;90;8400;3000;4063;4062;1;13002;26.74;28.14;30,4;BCS1388054;4;15
009590;13.01.2021;08:19:19;Stop          ;04.12.2018;FEY;;LION;49;14500;7200;224;4;99;100;8400;;4155;4156;1;13001;27.04;28.14;30,7;BCS1388054;4;15
009590;21.02.2021;13:43:32;Normalcharge  ;04.12.2018;FEY;;LION;49;14500;7200;192;5;60;61;8400;3000;3759;3757;1;13003;23.04;25.34;27,5;BCS1388054;2;4
009590;21.02.2021;19:27:00;Stop          ;04.12.2018;FEY;;LION;49;14500;7200;224;5;99;100;8400;;4154;4156;1;13003;26.74;28.24;31,1;BCS1388054;2;4
009590;06.04.2021;08:39:10;Normalcharge  ;04.12.2018;FEY;;LION;49;14500;7200;224;5;98;99;8400;;4128;4129;1;13014;21.44;25.64;28,1;BCS1388054;5;2
009590;06.04.2021;08:39:58;Stop          ;04.12.2018;FEY;;LION;49;14500;7200;224;5;98;99;8400;;4128;4129;1;13014;21.44;26.14;28,4;BCS1388054;5;2
009590;08.04.2021;07:58:30;Normalcharge  ;04.12.2018;FEY;;LION;49;14500;7200;224;5;97;99;8400;;4127;4129;1;13011;25.04;25.44;26,4;BCS1388054;5;2
009590;08.04.2021;07:59:28;Stop          ;04.12.2018;FEY;;LION;49;14500;7200;224;5;97;99;8400;;4127;4129;1;13010;25.04;26.14;26,7;BCS1388054;5;2
009590;08.04.2021;10:36:12;Normalcharge  ;04.12.2018;FEY;;LION;49;14500;7200;224;5;97;99;8400;;4127;4128;1;13010;25.24;26.64;28,6;BCS1388054;5;2
009590;08.04.2021;10:37:06;Stop          ;04.12.2018;FEY;;LION;49;14500;7200;224;5;97;99;8400;;4127;4128;1;13009;25.24;27.24;29,0;BCS1388054;5;2
009590;18.04.2021;08:34:16;Normalcharge  ;04.12.2018;FEY;;LION;49;14500;7200;192;5;97;98;8400;;4123;4125;1;13013;25.94;27.54;28,1;BCS1388054;5;2
009590;18.04.2021;08:34:27;Stop          ;04.12.2018;FEY;;LION;49;14500;7200;192;5;97;98;8400;;4124;4125;1;13012;25.94;27.54;28,2;BCS1388054;5;2
009590;04.08.2021;07:24:41;Normalcharge  ;04.12.2018;FEY;;LION;49;14500;7200;192;5;95;96;8400;;4091;4092;1;13007;30.04;30.94;31,5;BCS1388054;5;2
009590;04.08.2021;07:25:23;Stop          ;04.12.2018;FEY;;LION;49;14500;7200;192;5;95;96;8400;;4091;4092;1;13006;30.04;31.54;31,6;BCS1388054;5;2
009590;22.08.2021;11:37:13;Normalcharge  ;04.12.2018;FEY;;LION;49;14500;7200;192;5;94;95;8400;3000;4086;4086;1;13024;22.44;29.34;31,9;BCS1388054;7;18
009590;22.08.2021;11:37:48;Stop          ;04.12.2018;FEY;;LION;49;14500;7200;128;5;94;95;8400;3000;4106;4099;1;12984;22.54;30.54;31,9;BCS1388054;7;18
009590;12.10.2021;12:59:04;Normalcharge  ;04.12.2018;FEY;;LION;49;14500;7200;192;5;51;52;8400;3000;3659;3660;1;13015;23.44;25.94;28,5;BCS1388054;7;15
009590;12.10.2021;12:59:37;Stop          ;04.12.2018;FEY;;LION;49;14500;7200;128;5;51;52;8400;3000;3677;3669;1;12921;23.54;27.24;28,6;BCS1388054;7;15
009590;14.10.2021;12:40:12;Normalcharge  ;04.12.2018;FEY;;LION;49;14500;7200;192;5;51;52;8400;3000;3659;3660;1;13011;23.24;25.84;27,9;BCS1388054;5;9
009590;14.10.2021;12:41:49;Stop          ;04.12.2018;FEY;;LION;49;14500;7200;128;5;51;52;8400;3000;3750;3704;1;12646;23.34;29.34;28,5;BCS1388054;5;9
009590;01.11.2021;09:52:01;Normalcharge  ;04.12.2018;FEY;;LION;49;14500;7200;192;5;51;52;8400;3000;3658;3659;1;13011;25.64;26.04;26,3;BCS1388054;5;9
009590;01.11.2021;09:53:41;Stop          ;04.12.2018;FEY;;LION;49;14500;7200;128;5;52;52;8400;3000;3747;3702;1;12591;25.64;29.44;27,3;BCS1388054;5;9
009590;01.11.2021;10:02:19;Normalcharge  ;04.12.2018;FEY;;LION;49;14500;7200;192;5;52;52;8400;3000;3661;3662;1;13008;25.74;27.74;29,5;BCS1388054;5;9
009590;01.11.2021;10:03:11;Stop          ;04.12.2018;FEY;;LION;49;14500;7200;128;5;52;52;8400;3000;3746;3700;1;12588;25.84;29.64;29,3;BCS1388054;5;9
009590;01.11.2021;10:27:35;Normalcharge  ;04.12.2018;FEY;;LION;49;14500;7200;192;5;52;52;8400;3000;3661;3662;1;13016;26.04;26.74;27,8;BCS1388054;5;9
009590;01.11.2021;10:29:14;Stop          ;04.12.2018;FEY;;LION;49;14500;7200;128;5;52;53;8400;3000;3750;3704;1;12593;26.04;30.24;28,6;BCS1388054;5;9
009590;01.11.2021;10:32:33;Charge to 60% ;04.12.2018;FEY;;LION;49;14500;7200;192;5;52;53;8400;3000;3665;3666;1;13013;26.14;28.34;29,9;BCS1388054;5;9
009590;01.11.2021;11:11:47;Stop          ;04.12.2018;FEY;;LION;49;14500;7200;192;5;59;60;8400;3000;3733;3734;1;13013;28.54;29.74;32,5;BCS1388054;5;9

File: 009639.txt
Serialnumber ; Date ; Time ; Action ; Date of Manufacture ; Manufacturer ; Battery Name ; Device-Chemistry ; Specification-Info ; Design-Capacity [mAh] ; Design-Voltage [mV] ; Battery Status ; Cycle Count ; SOC [%] ; Relativ SOC[%] ; Desired Voltage [mV]; Desired Current [mA]; Cell Voltage 1 [mV] ; Cell Voltage 2 [mV] ; Max_Error [%] ; Busvoltage[mV] ; Battery Temperature [°C] ; Charger Temperature [°C] ; Batterysystem ; Case ; PLace
009639;10.12.2019;15:28:54;Charge to 30% ;04.12.2018;FEY;;LION;49;14500;7200;224;45;94;100;8400;;4130;4129;1;13016;22.84;23.84;27,1;BCS1388054;4;9
009639;10.12.2019;20:47:57;Stop          ;04.12.2018;FEY;;LION;49;14500;7200;192;46;29;30;8400;3000;3553;3551;1;13014;34.74;34.04;33,4;BCS1388054;4;9
009639;11.12.2019;08:48:41;Fastcharge    ;04.12.2018;FEY;;LION;49;14500;7200;192;46;29;30;8400;3000;3567;3566;1;13017;26.94;27.34;31,9;BCS1388054;4;9
009639;11.12.2019;13:42:44;Stop          ;04.12.2018;FEY;;LION;49;14500;7200;224;46;96;100;8400;;4163;4164;1;13016;31.24;29.24;31,9;BCS1388054;4;9
009639;11.12.2019;15:46:31;Charge to 10% ;04.12.2018;FEY;;LION;49;14500;7200;224;46;98;100;8400;;4156;4157;1;13015;27.94;27.44;31,4;BCS1388054;4;9
009639;11.12.2019;22:50:44;Stop          ;04.12.2018;FEY;;LION;49;14500;7200;192;47;10;10;8400;3000;3350;3350;1;13015;35.64;33.54;33,2;BCS1388054;4;9
009639;12.12.2019;08:45:03;Normalcharge  ;04.12.2018;FEY;;LION;49;14500;7200;192;47;9;10;8400;3000;3363;3362;1;13015;27.14;27.44;31,9;BCS1388054;4;9
009639;12.12.2019;16:41:48;Stop          ;04.12.2018;FEY;;LION;49;14500;7200;224;47;97;100;8400;;4164;4168;1;13014;30.24;28.94;31,5;BCS1388054;4;9
009639;13.12.2019;10:48:01;Charge to 10% ;04.12.2018;FEY;;LION;49;14500;7200;224;47;97;100;8400;;4151;4153;1;13016;27.14;27.64;32,0;BCS1388054;4;9
009639;13.12.2019;15:42:25;Stop          ;04.12.2018;FEY;;LION;49;14500;7200;192;48;36;37;8400;3000;3506;3557;1;13514;34.04;37.24;34,6;BCS1388054;4;9
009639;13.12.2019;15:42:27;Cycle         ;04.12.2018;FEY;;LION;49;14500;7200;192;48;36;37;8400;3000;3506;3557;1;13514;34.04;37.24;34,6;BCS1388054;4;9
009639;14.12.2019;22:44:28;Stop          ;04.12.2018;FEY;;LION;49;14500;7200;224;49;94;99;8400;;4153;4156;1;13017;27.34;27.54;32,0;BCS1388054;4;9
009639;16.12.2019;07:43:14;Charge to 10% ;04.12.2018;FEY;;LION;49;14500;7200;224;49;95;100;8400;;4148;4149;1;13015;26.94;27.04;31,9;BCS1388054;4;9
009639;16.12.2019;14:36:44;Stop          ;04.12.2018;FEY;;LION;49;14500;7200;192;50;10;10;8400;3000;3355;3355;1;13015;34.04;34.14;32,4;BCS1388054;4;9
009639;16.12.2019;14:44:13;Charge to 90% ;04.12.2018;FEY;;LION;49;14500;7200;192;50;10;10;8400;3000;3364;3364;1;13017;33.44;30.04;31,7;BCS1388054;4;9
009639;16.12.2019;20:50:27;Stop          ;04.12.2018;FEY;;LION;49;14500;7200;128;50;86;90;8400;3000;4069;4070;1;13016;33.14;33.14;31,6;BCS1388054;4;9
009639;17.12.2019;08:37:49;Fastcharge    ;04.12.2018;FEY;;LION;49;14500;7200;192;50;86;90;8400;3000;4046;4047;1;13015;26.94;27.34;31,6;BCS1388054;4;9
009639;17.12.2019;10:31:06;Stop          ;04.12.2018;FEY;;LION;49;14500;7200;224;50;96;100;8400;;4162;4162;1;13017;28.84;28.44;31,4;BCS1388054;4;9
009639;17.12.2019;13:38:32;Charge to 10% ;04.12.2018;FEY;;LION;49;14500;7200;224;50;96;100;8400;;4152;4152;1;13016;27.34;27.14;30,8;BCS1388054;4;9
009639;17.12.2019;20:34:29;Stop          ;04.12.2018;FEY;;LION;49;14500;7200;192;51;10;10;8400;3000;3268;3317;1;13015;35.74;36.74;34,1;BCS1388054;4;9
009639;18.12.2019;08:31:26;Fastcharge    ;04.12.2018;FEY;;LION;49;14500;7200;192;51;9;10;8400;3000;3370;3370;1;13016;27.04;27.24;31,6;BCS1388054;4;9
009639;18.12.2019;14:29:12;Stop          ;04.12.2018;FEY;;LION;49;14500;7200;224;51;95;100;8400;;4164;4162;1;13016;31.34;29.44;31,9;BCS1388054;4;9
009639;19.12.2019;08:23:58;Charge to 60% ;04.12.2018;FEY;;LION;49;14500;7200;224;51;97;100;8400;;4151;4150;1;13016;26.94;27.44;31,6;BCS1388054;4;9
009639;19.12.2019;11:30:18;Stop          ;04.12.2018;FEY;;LION;49;14500;7200;192;52;58;60;8400;3000;3676;3724;1;13014;35.24;37.44;34,6;BCS1388054;4;9
009639;19.12.2019;12:16:45;Cycle         ;04.12.2018;FEY;;LION;49;14500;7200;192;52;58;60;8400;3000;3776;3771;1;13016;31.74;29.74;32,7;BCS1388054;4;9
009639;20.12.2019;17:30:48;Stop          ;04.12.2018;FEY;;LION;49;14500;7200;224;53;95;100;8400;;4154;4154;1;13017;27.44;27.04;30,6;BCS1388054;4;9
009639;06.01.2020;06:34:50;Charge to 60% ;04.12.2018;FEY;;LION;49;14500;7200;192;53;93;98;8400;;4123;4122;1;13018;27.24;27.54;31,9;BCS1388054;4;9
009639;06.01.2020;09:30:33;Stop          ;04.12.2018;FEY;;LION;49;14500;7200;192;54;57;60;8400;3000;3770;3767;1;13015;34.24;33.24;33,7;BCS1388054;4;9
009639;06.01.2020;09:50:38;Fastcharge    ;04.12.2018;FEY;;LION;49;14500;7200;192;54;57;60;8400;3000;3781;3778;1;13016;32.74;30.54;32,7;BCS1388054;4;9
009639;06.01.2020;13:09:19;Stop          ;04.12.2018;FEY;;LION;49;14500;7200;224;54;95;100;8400;;4161;4161;1;13016;30.74;28.74;31,4;BCS1388054;4;9