Folder: Battery_sort_V2/reader/backup_20211213 (part 3)

File: 009641.txt
Serialnumber ; Date ; Time ; Action ; Date of Manufacture ; Manufacturer ; Battery Name ; Device-Chemistry ; Specification-Info ; Design-Capacity [mAh] ; Design-Voltage [mV] ; Battery Status ; Cycle Count ; SOC [%] ; Relativ SOC[%] ; Desired Voltage [mV]; Desired Current [mA]; Cell Voltage 1 [mV] ; Cell Voltage 2 [mV] ; Max_Error [%] ; Busvoltage[mV] ; Battery Temperature [°C] ; Charger Temperature [°C] ; Batterysystem ; Case ; PLace
009641;10.12.2019;15:28:33;Charge to 30% ;03.12.2018;FEY;;LION;49;14500;7200;192;46;92;98;8400;;4108;4107;1;12995;23.44;26.24;27,1;BCS1388054;1;9
009641;10.12.2019;20:42:16;Stop          ;03.12.2018;FEY;;LION;49;14500;7200;192;47;29;30;8400;3000;3560;3560;1;12995;32.74;33.14;34,1;BCS1388054;1;9
009641;11.12.2019;08:48:18;Fastcharge    ;03.12.2018;FEY;;LION;49;14500;7200;192;47;29;30;8400;3000;3569;3569;1;12996;26.14;27.94;31,9;BCS1388054;1;9
009641;11.12.2019;13:40:21;Stop          ;03.12.2018;FEY;;LION;49;14500;7200;224;47;95;100;8400;;4161;4162;1;12996;29.84;29.74;32,4;BCS1388054;1;9
009641;11.12.2019;15:45:57;Charge to 30% ;03.12.2018;FEY;;LION;49;14500;7200;224;47;96;99;8400;;4153;4154;1;12996;26.94;28.24;31,5;BCS1388054;1;9
009641;11.12.2019;15:46:00;Stop          ;03.12.2018;FEY;;LION;49;14500;7200;224;47;96;99;8400;;4153;4154;1;12997;26.94;28.14;31,5;BCS1388054;1;9
009641;11.12.2019;15:46:13;Charge to 10% ;03.12.2018;FEY;;LION;49;14500;7200;224;47;96;99;8400;;4153;4154;1;12997;26.94;28.24;31,5;BCS1388054;1;9
009641;11.12.2019;22:50:20;Stop          ;03.12.2018;FEY;;LION;49;14500;7200;192;48;10;10;8400;3000;3349;3350;1;12995;33.54;32.74;33,4;BCS1388054;1;9
009641;12.12.2019;08:44:40;Normalcharge  ;03.12.2018;FEY;;LION;49;14500;7200;192;48;9;10;8400;3000;3361;3362;1;12997;26.34;28.04;31,9;BCS1388054;1;9
009641;12.12.2019;16:39:22;Stop          ;03.12.2018;FEY;;LION;49;14500;7200;224;48;96;100;8400;;4162;4162;1;12996;28.94;29.54;31,7;BCS1388054;1;9
009641;13.12.2019;10:47:47;Charge to 10% ;03.12.2018;FEY;;LION;49;14500;7200;224;48;96;100;8400;;4148;4148;1;12997;26.34;28.24;32,0;BCS1388054;1;9
009641;13.12.2019;15:41:58;Stop          ;03.12.2018;FEY;;LION;49;14500;7200;192;49;35;37;8400;3000;3502;3554;1;13624;32.34;37.74;34,6;BCS1388054;1;9
009641;13.12.2019;15:42:01;Cycle         ;03.12.2018;FEY;;LION;49;14500;7200;192;49;35;37;8400;3000;3502;3553;1;12996;32.34;37.74;34,6;BCS1388054;1;9
009641;14.12.2019;22:41:25;Stop          ;03.12.2018;FEY;;LION;49;14500;7200;224;50;93;99;8400;;4151;4151;1;12997;26.44;28.14;31,9;BCS1388054;1;9
009641;16.12.2019;07:43:03;Charge to 10% ;03.12.2018;FEY;;LION;49;14500;7200;224;50;94;100;8400;;4145;4145;1;12996;26.04;27.44;31,9;BCS1388054;1;9
009641;16.12.2019;14:36:13;Stop          ;03.12.2018;FEY;;LION;49;14500;7200;192;51;10;10;8400;3000;3363;3364;1;12996;32.24;31.84;32,4;BCS1388054;1;9
009641;16.12.2019;14:44:00;Charge to 90% ;03.12.2018;FEY;;LION;49;14500;7200;192;51;10;10;8400;3000;3365;3366;1;12996;31.64;30.54;31,7;BCS1388054;1;9
009641;16.12.2019;20:50:03;Stop          ;03.12.2018;FEY;;LION;49;14500;7200;192;51;85;90;8400;3000;4059;4060;1;12997;31.44;30.94;31,7;BCS1388054;1;9
009641;17.12.2019;08:37:36;Fastcharge    ;03.12.2018;FEY;;LION;49;14500;7200;192;51;85;90;8400;3000;4047;4048;1;12996;26.14;27.84;31,6;BCS1388054;1;9
009641;17.12.2019;10:31:11;Stop          ;03.12.2018;FEY;;LION;49;14500;7200;224;51;95;100;8400;;4158;4158;1;12997;27.64;28.74;31,4;BCS1388054;1;9
009641;17.12.2019;13:38:19;Charge to 10% ;03.12.2018;FEY;;LION;49;14500;7200;224;51;95;100;8400;;4149;4148;1;12996;26.44;27.74;30,8;BCS1388054;1;9
009641;17.12.2019;20:33:50;Stop          ;03.12.2018;FEY;;LION;49;14500;7200;192;52;10;10;8400;3000;3362;3363;1;12995;33.44;32.94;34,2;BCS1388054;1;9
009641;18.12.2019;08:31:14;Fastcharge    ;03.12.2018;FEY;;LION;49;14500;7200;192;52;10;10;8400;3000;3372;3373;1;12996;26.24;27.94;31,6;BCS1388054;1;9
009641;18.12.2019;14:28:33;Stop          ;03.12.2018;FEY;;LION;49;14500;7200;224;52;95;100;8400;;4161;4162;1;12996;29.84;29.64;31,9;BCS1388054;1;9
009641;19.12.2019;08:23:45;Charge to 60% ;03.12.2018;FEY;;LION;49;14500;7200;224;52;96;100;8400;;4149;4149;1;12996;26.14;27.84;31,5;BCS1388054;1;9
009641;19.12.2019;11:29:32;Stop          ;03.12.2018;FEY;;LION;49;14500;7200;192;53;58;60;8400;3000;3764;3766;1;12995;33.24;34.44;34,9;BCS1388054;1;9
009641;19.12.2019;12:16:33;Cycle         ;03.12.2018;FEY;;LION;49;14500;7200;192;53;58;60;8400;3000;3779;3782;1;12996;30.04;29.74;32,7;BCS1388054;1;9
009641;20.12.2019;17:26:19;Stop          ;03.12.2018;FEY;;LION;49;14500;7200;224;54;94;100;8400;;4151;4152;1;12997;26.44;27.74;31,2;BCS1388054;1;9
009641;06.01.2020;06:34:38;Charge to 60% ;03.12.2018;FEY;;LION;49;14500;7200;224;54;93;99;8400;;4122;4122;1;12997;26.24;27.84;31,9;BCS1388054;1;9
009641;06.01.2020;09:30:30;Stop          ;03.12.2018;FEY;;LION;49;14500;7200;192;54;57;60;8400;3000;3765;3768;1;12996;32.44;33.24;33,9;BCS1388054;1;9
009641;06.01.2020;09:50:27;Fastcharge    ;03.12.2018;FEY;;LION;49;14500;7200;192;54;57;60;8400;3000;3777;3780;1;12997;31.04;30.34;32,6;BCS1388054;1;9
009641;06.01.2020;13:07:36;Stop          ;03.12.2018;FEY;;LION;49;14500;7200;224;54;95;100;8400;;4160;4161;1;12996;29.24;29.44;31,7;BCS1388054;1;9

File: 009695.txt
Serialnumber ; Date ; Time ; Action ; Date of Manufacture ; Manufacturer ; Battery Name ; Device-Chemistry ; Specification-Info ; Design-Capacity [mAh] ; Design-Voltage [mV] ; Battery Status ; Cycle Count ; SOC [%] ; Relativ SOC[%] ; Desired Voltage [mV]; Desired Current [mA]; Cell Voltage 1 [mV] ; Cell Voltage 2 [mV] ; Max_Error [%] ; Busvoltage[mV] ; Battery Temperature [°C] ; Charger Temperature [°C] ; Batterysystem ; Case ; PLace
009695;10.12.2019;15:28:33;Charge to 30% ;04.12.2018;FEY;;LION;49;14500;7200;192;48;91;98;8400;;4109;4108;1;13004;23.54;25.24;27,1;BCS1388054;1;10
009695;10.12.2019;20:42:17;Stop          ;04.12.2018;FEY;;LION;49;14500;7200;192;49;28;30;8400;3000;3563;3562;1;13002;32.34;31.84;34,1;BCS1388054;1;10
009695;11.12.2019;08:48:18;Fastcharge    ;04.12.2018;FEY;;LION;49;14500;7200;192;49;28;30;8400;3000;3570;3570;1;13002;26.14;26.94;31,9;BCS1388054;1;10
009695;11.12.2019;13:40:21;Stop          ;04.12.2018;FEY;;LION;49;14500;7200;224;49;94;100;8400;;4160;4162;1;13002;29.24;28.64;32,4;BCS1388054;1;10
009695;11.12.2019;15:45:57;Charge to 30% ;04.12.2018;FEY;;LION;49;14500;7200;224;49;95;99;8400;;4153;4153;1;13002;26.84;27.04;31,5;BCS1388054;1;10
009695;11.12.2019;15:46:00;Stop          ;04.12.2018;FEY;;LION;49;14500;7200;224;49;95;99;8400;;4153;4153;1;13003;26.84;27.04;31,5;BCS1388054;1;10
009695;11.12.2019;15:46:13;Charge to 10% ;04.12.2018;FEY;;LION;49;14500;7200;224;49;95;99;8400;;4153;4153;1;13002;26.84;27.14;31,5;BCS1388054;1;10
009695;11.12.2019;22:50:20;Stop          ;04.12.2018;FEY;;LION;49;14500;7200;192;50;10;10;8400;3000;3354;3354;1;13001;32.94;31.24;33,4;BCS1388054;1;10
009695;12.12.2019;08:44:40;Normalcharge  ;04.12.2018;FEY;;LION;49;14500;7200;192;50;9;9;8400;3000;3363;3363;1;13001;26.34;27.04;31,9;BCS1388054;1;10
009695;12.12.2019;16:39:22;Stop          ;04.12.2018;FEY;;LION;49;14500;7200;224;50;95;100;8400;;4159;4160;1;13001;28.54;28.24;31,7;BCS1388054;1;10
009695;13.12.2019;10:47:47;Charge to 10% ;04.12.2018;FEY;;LION;49;14500;7200;224;50;95;100;8400;;4148;4148;1;13002;26.34;27.14;32,0;BCS1388054;1;10
009695;13.12.2019;15:41:58;Stop          ;04.12.2018;FEY;;LION;49;14500;7200;192;51;34;36;8400;3000;3498;3549;1;13637;31.84;36.74;34,6;BCS1388054;1;10
009695;13.12.2019;15:42:01;Cycle         ;04.12.2018;FEY;;LION;49;14500;7200;192;51;34;36;8400;3000;3498;3549;1;13001;31.84;36.74;34,6;BCS1388054;1;10
009695;14.12.2019;22:41:25;Stop          ;04.12.2018;FEY;;LION;49;14500;7200;224;52;92;99;8400;;4151;4152;1;13001;26.34;27.04;31,9;BCS1388054;1;10
009695;16.12.2019;07:43:03;Charge to 10% ;04.12.2018;FEY;;LION;49;14500;7200;224;52;93;100;8400;;4146;4146;1;13002;26.04;26.34;31,9;BCS1388054;1;10
009695;16.12.2019;14:36:13;Stop          ;04.12.2018;FEY;;LION;49;14500;7200;192;53;10;10;8400;3000;3367;3367;1;13001;31.64;30.34;32,4;BCS1388054;1;10
009695;16.12.2019;14:44:00;Charge to 90% ;04.12.2018;FEY;;LION;49;14500;7200;192;53;10;10;8400;3000;3368;3368;1;13002;31.04;29.34;31,7;BCS1388054;1;10
009695;16.12.2019;20:50:03;Stop          ;04.12.2018;FEY;;LION;49;14500;7200;192;53;84;90;8400;3000;4056;4057;1;13002;30.84;29.34;31,7;BCS1388054;1;10
009695;17.12.2019;08:37:36;Fastcharge    ;04.12.2018;FEY;;LION;49;14500;7200;192;53;84;90;8400;3000;4047;4047;1;13003;26.14;26.74;31,6;BCS1388054;1;10
009695;17.12.2019;10:31:11;Stop          ;04.12.2018;FEY;;LION;49;14500;7200;224;53;94;100;8400;;4161;4162;1;13002;27.44;27.74;31,4;BCS1388054;1;10
009695;17.12.2019;13:38:19;Charge to 10% ;04.12.2018;FEY;;LION;49;14500;7200;224;53;94;100;8400;;4150;4150;1;13002;26.44;26.64;30,8;BCS1388054;1;10
009695;17.12.2019;20:33:50;Stop          ;04.12.2018;FEY;;LION;49;14500;7200;192;54;10;10;8400;3000;3365;3365;1;13001;32.84;31.44;34,2;BCS1388054;1;10
009695;18.12.2019;08:31:14;Fastcharge    ;04.12.2018;FEY;;LION;49;14500;7200;192;54;10;10;8400;3000;3374;3374;1;13002;26.24;26.84;31,6;BCS1388054;1;10
009695;18.12.2019;14:28:33;Stop          ;04.12.2018;FEY;;LION;49;14500;7200;224;54;94;100;8400;;4161;4162;1;13003;29.24;28.54;31,9;BCS1388054;1;10
009695;19.12.2019;08:23:45;Charge to 60% ;04.12.2018;FEY;;LION;49;14500;7200;224;54;95;100;8400;;4149;4149;1;13003;26.14;26.74;31,5;BCS1388054;1;10
009695;19.12.2019;11:29:32;Stop          ;04.12.2018;FEY;;LION;49;14500;7200;192;55;57;60;8400;3000;3765;3766;1;13002;32.84;32.54;34,9;BCS1388054;1;10
009695;19.12.2019;12:16:33;Cycle         ;04.12.2018;FEY;;LION;49;14500;7200;192;55;57;60;8400;3000;3775;3777;1;13003;29.74;28.64;32,7;BCS1388054;1;10
009695;20.12.2019;17:26:19;Stop          ;04.12.2018;FEY;;LION;49;14500;7200;224;56;93;100;8400;;4151;4152;1;13002;26.34;26.64;31,2;BCS1388054;1;10
009695;06.01.2020;06:34:38;Charge to 60% ;04.12.2018;FEY;;LION;49;14500;7200;224;56;92;99;8400;;4123;4123;1;13004;26.24;26.74;31,9;BCS1388054;1;10
009695;06.01.2020;09:30:30;Stop          ;04.12.2018;FEY;;LION;49;14500;7200;192;56;56;60;8400;3000;3766;3766;1;13003;32.14;31.44;33,9;BCS1388054;1;10
009695;06.01.2020;09:50:27;Fastcharge    ;04.12.2018;FEY;;LION;49;14500;7200;192;56;56;60;8400;3000;3774;3775;1;13003;30.74;29.14;32,6;BCS1388054;1;10
009695;06.01.2020;13:07:36;Stop          ;04.12.2018;FEY;;LION;49;14500;7200;224;56;94;100;8400;;4162;4163;1;13003;28.84;28.54;31,7;BCS1388054;1;10

File: 009723.txt
Serialnumber ; Date ; Time ; Action ; Date of Manufacture ; Manufacturer ; Battery Name ; Device-Chemistry ; Specification-Info ; Design-Capacity [mAh] ; Design-Voltage [mV] ; Battery Status ; Cycle Count ; SOC [%] ; Relativ SOC[%] ; Desired Voltage [mV]; Desired Current [mA]; Cell Voltage 1 [mV] ; Cell Voltage 2 [mV] ; Max_Error [%] ; Busvoltage[mV] ; Battery Temperature [°C] ; Charger Temperature [°C] ; Batterysystem ; Case ; PLace
009723;07.12.2020;04:14:25;Cycle          ;04.12.2018;FEY;;LION;49;14500;7200;192;1;97;98;8400;;4125;4125;1;13002;26.04;27.04;30,3;BCS1388054;3;18
009723;08.12.2020;16:19:50;Stop           ;04.12.2018;FEY;;LION;49;14500;7200;192;1;97;98;8400;;4123;4123;1;13000;28.04;28.74;31,9;BCS1388054;3;18
009723;12.01.2021;04:17:40;Charge to 90% ;04.12.2018;FEY;;LION;49;14500;7200;192;1;96;97;8400;;4112;4112;1;12994;23.34;24.34;23,6;BCS1388054;6;13
009723;12.01.2021;05:00:55;Stop          ;04.12.2018;FEY;;LION;49;14500;7200;192;2;90;90;8400;3000;4051;4052;1;12989;27.14;30.74;31,2;BCS1388054;6;13
009723;12.01.2021;05:21:57;Cycle         ;04.12.2018;FEY;;LION;49;14500;7200;192;2;90;90;8400;3000;4053;4054;1;12990;27.34;29.44;30,4;BCS1388054;6;13
009723;13.01.2021;08:31:18;Stop          ;04.12.2018;FEY;;LION;49;14500;7200;224;3;97;100;8400;;4155;4155;1;12990;27.34;29.34;31,1;BCS1388054;6;13
009723;22.02.2021;17:31:46;Normalcharge  ;04.12.2018;FEY;;LION;49;14500;7200;192;3;50;52;8400;3000;3666;3665;1;12990;26.14;26.84;31,6;BCS1388054;1;9
009723;22.02.2021;23:06:28;Stop          ;04.12.2018;FEY;;LION;49;14500;7200;224;3;99;100;8400;;4157;4157;1;12991;27.04;27.64;30,6;BCS1388054;1;9
009723;04.04.2021;11:50:22;Normalcharge  ;04.12.2018;FEY;;LION;49;14500;7200;192;3;95;97;8400;;4104;4104;1;13013;25.44;26.64;27,9;BCS1388054;4;10
009723;04.04.2021;11:51:36;Stop          ;04.12.2018;FEY;;LION;49;14500;7200;192;3;95;97;8400;;4104;4104;1;12723;25.44;26.94;28,6;BCS1388054;4;10
009723;04.08.2021;07:25:01;Normalcharge  ;04.12.2018;FEY;;LION;49;14500;7200;192;3;90;92;8400;3000;4056;4056;1;12993;22.04;30.44;31,5;BCS1388054;1;18
009723;04.08.2021;07:25:57;Stop          ;04.12.2018;FEY;;LION;49;14500;7200;128;3;90;92;8400;3000;4128;4097;1;12763;22.44;32.34;31,9;BCS1388054;1;18
009723;22.08.2021;11:37:13;Normalcharge  ;04.12.2018;FEY;;LION;49;14500;7200;192;3;90;91;8400;3000;4051;4051;1;13020;24.34;29.24;31,9;BCS1388054;7;6
009723;22.08.2021;11:37:48;Stop          ;04.12.2018;FEY;;LION;49;14500;7200;192;3;90;91;8400;3000;4051;4051;1;12995;24.34;30.44;31,9;BCS1388054;7;6

File: 009733.txt
Serialnumber ; Date ; Time ; Action ; Date of Manufacture ; Manufacturer ; Battery Name ; Device-Chemistry ; Specification-Info ; Design-Capacity [mAh] ; Design-Voltage [mV] ; Battery Status ; Cycle Count ; SOC [%] ; Relativ SOC[%] ; Desired Voltage [mV]; Desired Current [mA]; Cell Voltage 1 [mV] ; Cell Voltage 2 [mV] ; Max_Error [%] ; Busvoltage[mV] ; Battery Temperature [°C] ; Charger Temperature [°C] ; Batterysystem ; Case ; PLace
009733;07.02.2021;08:47:07;Normalcharge  ;04.12.2018;FEY;;LION;49;14500;7200;192;4;79;80;8400;3000;3932;3933;1;13017;23.54;26.04;29,2;BCS1388054;5;5
009733;07.02.2021;11:50:11;Stop          ;04.12.2018;FEY;;LION;49;14500;7200;224;4;98;100;8400;;4154;4155;1;13017;25.74;27.34;30,0;BCS1388054;5;5
009733;03.03.2021;08:17:35;Normalcharge  ;04.12.2018;FEY;;LION;49;14500;7200;192;4;83;84;8400;3000;3973;3973;1;13009;23.24;23.74;23,6;BCS1388054;5;3
009733;03.03.2021;11:26:36;Stop          ;04.12.2018;FEY;;LION;49;14500;7200;224;4;99;100;8400;;4154;4155;1;13003;28.44;30.24;31,5;BCS1388054;5;3
009733;04.04.2021;11:50:22;Normalcharge  ;04.12.2018;FEY;;LION;49;14500;7200;192;5;58;59;8400;3000;3738;3742;1;13005;25.14;25.74;27,9;BCS1388054;4;17
009733;04.04.2021;11:51:36;Stop          ;04.12.2018;FEY;;LION;49;14500;7200;128;5;58;59;8400;3000;3831;3788;1;12696;25.14;28.84;28,6;BCS1388054;4;17
009733;05.04.2021;09:37:37;Charge to 60% ;04.12.2018;FEY;;LION;49;14500;7200;192;5;58;59;8400;3000;3742;3745;1;12995;25.14;25.64;26,0;BCS1388054;1;5
009733;05.04.2021;10:01:53;Stop          ;04.12.2018;FEY;;LION;49;14500;7200;192;5;58;60;8400;3000;3747;3751;1;12991;25.94;27.44;31,2;BCS1388054;1;5
009733;22.08.2021;11:08:18;Normalcharge  ;04.12.2018;FEY;;LION;49;14500;7200;192;5;54;55;8400;3000;3701;3702;1;13030;30.04;31.04;32,2;BCS1388054;7;5
009733;22.08.2021;11:08:50;Stop          ;04.12.2018;FEY;;LION;49;14500;7200;128;5;54;55;8400;3000;3733;3717;1;12848;30.04;32.14;32,6;BCS1388054;7;5
009733;25.08.2021;08:15:08;Charge to 60% ;04.12.2018;FEY;;LION;49;14500;7200;192;5;54;55;8400;3000;3700;3702;1;12988;30.54;33.04;33,4;BCS1388054;4;2
009733;25.08.2021;12:59:17;Stop          ;04.12.2018;FEY;;LION;49;14500;7200;192;5;58;60;8400;3000;3749;3751;1;12987;32.84;35.64;36,6;BCS1388054;4;2
009733;01.11.2021;09:52:14;Normalcharge  ;04.12.2018;FEY;;LION;49;14500;7200;192;5;56;57;8400;3000;3719;3720;1;13005;25.84;26.94;26,3;BCS1388054;2;5
009733;01.11.2021;09:53:17;Stop          ;04.12.2018;FEY;;LION;49;14500;7200;128;5;56;57;8400;3000;3809;3760;1;12516;25.94;29.34;26,8;BCS1388054;2;5
009733;01.11.2021;10:02:05;Normalcharge  ;04.12.2018;FEY;;LION;49;14500;7200;192;5;56;57;8400;3000;3721;3723;1;12996;26.04;28.14;29,5;BCS1388054;2;5
009733;01.11.2021;10:03:24;Stop          ;04.12.2018;FEY;;LION;49;14500;7200;128;5;56;58;8400;3000;3813;3767;1;12506;26.14;30.54;29,3;BCS1388054;2;5
009733;01.11.2021;10:18:11;Normalcharge  ;04.12.2018;FEY;;LION;49;14500;7200;192;5;56;58;8400;3000;3724;3726;1;12999;26.24;27.84;28,4;BCS1388054;2;5
009733;01.11.2021;10:18:48;Stop          ;04.12.2018;FEY;;LION;49;14500;7200;128;5;56;58;8400;3000;3785;3754;1;12577;26.24;29.14;28,2;BCS1388054;2;5
009733;01.11.2021;10:28:53;Normalcharge  ;04.12.2018;FEY;;LION;49;14500;7200;192;5;56;58;8400;3000;3725;3727;1;12999;26.34;28.14;28,2;BCS1388054;2;5
009733;01.11.2021;10:29:00;Stop          ;04.12.2018;FEY;;LION;49;14500;7200;192;5;56;58;8400;3000;3725;3727;1;12986;26.34;28.14;28,4;BCS1388054;2;5
009733;01.11.2021;11:53:39;Stop          ;04.12.2018;FEY;;LION;49;14500;7200;192;5;58;60;8400;3000;3751;3754;1;12998;28.14;29.94;32,5;BCS1388054;2;5

File: 009764.txt
Serialnumber ; Date ; Time ; Action ; Date of Manufacture ; Manufacturer ; Battery Name ; Device-Chemistry ; Specification-Info ; Design-Capacity [mAh] ; Design-Voltage [mV] ; Battery Status ; Cycle Count ; SOC [%] ; Relativ SOC[%] ; Desired Voltage [mV]; Desired Current [mA]; Cell Voltage 1 [mV] ; Cell Voltage 2 [mV] ; Max_Error [%] ; Busvoltage[mV] ; Battery Temperature [°C] ; Charger Temperature [°C] ; Batterysystem ; Case ; PLace
009764;07.12.2020;04:14:40;Cycle         ;04.12.2018;FEY;;LION;49;14500;7200;192;3;95;95;8400;3000;4101;4101;1;13018;25.64;26.84;30,3;BCS1388054;7;15
009764;08.12.2020;16:20:20;Stop          ;04.12.2018;FEY;;LION;49;14500;7200;224;4;97;100;8400;;4153;4152;1;13018;27.74;28.34;31,9;BCS1388054;7;15
009764;03.03.2021;08:17:46;Normalcharge  ;04.12.2018;FEY;;LION;49;14500;7200;192;4;56;57;8400;3000;3721;3721;1;13031;23.24;23.34;23,6;BCS1388054;7;7
009764;03.03.2021;10:54:05;Stop          ;04.12.2018;FEY;;LION;49;14500;7200;128;4;88;90;8400;3000;4149;4103;1;12710;30.54;35.44;31,4;BCS1388054;7;7
009764;03.03.2021;10:55:49;Normalcharge  ;04.12.2018;FEY;;LION;49;14500;7200;192;4;88;90;8400;3000;4062;4063;1;13026;30.44;32.54;30,6;BCS1388054;7;7
009764;03.03.2021;17:03:24;Stop          ;04.12.2018;FEY;;LION;49;14500;7200;224;4;98;100;8400;;4153;4153;1;13025;26.44;27.74;31,4;BCS1388054;7;7
009764;04.04.2021;11:49:55;Normalcharge  ;04.12.2018;FEY;;LION;49;14500;7200;224;4;96;99;8400;;4132;4131;1;13032;25.14;26.44;27,5;BCS1388054;7;8
009764;04.04.2021;11:51:17;Stop          ;04.12.2018;FEY;;LION;49;14500;7200;224;4;96;99;8400;;4132;4132;1;12757;25.14;26.94;28,4;BCS1388054;7;8
009764;22.08.2021;11:37:25;Normalcharge  ;04.12.2018;FEY;;LION;49;14500;7200;2768;6;;;8400;3000;2639;2614;1;13012;20.94;28.04;31,9;BCS1388054;4;4
009764;22.08.2021;11:38:13;Stop          ;04.12.2018;FEY;;LION;49;14500;7200;2768;6;;;8400;3000;2639;2614;1;12650;21.04;29.74;32,1;BCS1388054;4;4
009764;25.08.2021;08:15:08;Charge to 60% ;04.12.2018;FEY;;LION;49;14500;7200;2768;6;;;8400;3000;2640;2624;1;13005;30.44;31.74;33,4;BCS1388054;4;4
009764;25.08.2021;12:59:17;Stop          ;04.12.2018;FEY;;LION;49;14500;7200;128;6;56;60;8400;3000;3779;3783;1;13003;34.84;37.44;36,6;BCS1388054;4;4
009764;01.11.2021;09:52:15;Normalcharge  ;04.12.2018;FEY;;LION;49;14500;7200;192;6;52;56;8400;3000;3712;3713;1;12999;25.84;25.64;26,3;BCS1388054;2;11
009764;01.11.2021;09:53:18;Stop          ;04.12.2018;FEY;;LION;49;14500;7200;128;6;52;56;8400;3000;3801;3754;1;12504;25.94;28.04;26,8;BCS1388054;2;11
009764;01.11.2021;10:02:05;Normalcharge  ;04.12.2018;FEY;;LION;49;14500;7200;192;6;52;56;8400;3000;3715;3716;1;12993;26.04;26.74;29,5;BCS1388054;2;11
009764;01.11.2021;10:03:24;Stop          ;04.12.2018;FEY;;LION;49;14500;7200;128;6;53;56;8400;3000;3807;3759;1;12490;26.14;29.14;29,3;BCS1388054;2;11
009764;01.11.2021;10:18:11;Normalcharge  ;04.12.2018;FEY;;LION;49;14500;7200;192;6;53;56;8400;3000;3718;3719;1;12994;26.24;26.64;28,4;BCS1388054;2;11
009764;01.11.2021;10:18:48;Stop          ;04.12.2018;FEY;;LION;49;14500;7200;128;6;53;56;8400;3000;3776;3745;1;12598;26.34;27.74;28,2;BCS1388054;2;11
009764;01.11.2021;10:28:53;Normalcharge  ;04.12.2018;FEY;;LION;49;14500;7200;192;6;53;56;8400;3000;3719;3720;1;12994;26.34;26.74;28,2;BCS1388054;2;11
009764;01.11.2021;10:29:00;Stop          ;04.12.2018;FEY;;LION;49;14500;7200;192;6;53;56;8400;3000;3719;3720;1;12981;26.34;26.74;28,4;BCS1388054;2;11
009764;01.11.2021;11:53:40;Stop          ;04.12.2018;FEY;;LION;49;14500;7200;192;6;56;60;8400;3000;3773;3776;1;12993;28.24;28.64;32,5;BCS1388054;2;11

File: 009767.txt
Serialnumber ; Date ; Time ; Action ; Date of Manufacture ; Manufacturer ; Battery Name ; Device-Chemistry ; Specification-Info ; Design-Capacity [mAh] ; Design-Voltage [mV] ; Battery Status ; Cycle Count ; SOC [%] ; Relativ SOC[%] ; Desired Voltage [mV]; Desired Current [mA]; Cell Voltage 1 [mV] ; Cell Voltage 2 [mV] ; Max_Error [%] ; Busvoltage[mV] ; Battery Temperature [°C] ; Charger Temperature [°C] ; Batterysystem ; Case ; PLace
009767;07.02.2021;08:46:53;Normalcharge  ;04.12.2018;FEY;;LION;49;14500;7200;16576;3;94;95;;;4100;4100;1;13004;23.54;25.34;29,2;BCS1388054;3;10
009767;07.02.2021;11:52:16;Stop           ;04.12.2018;FEY;;LION;49;14500;7200;16576;3;94;95;;;4100;4101;1;13004;26.04;26.94;29,7;BCS1388054;3;10
009767;03.03.2021;08:17:46;Normalcharge  ;04.12.2018;FEY;;LION;49;14500;7200;2768;4;;;8400;3000;3046;3073;1;13025;23.24;22.64;23,6;BCS1388054;7;15
009767;03.03.2021;10:54:05;Stop          ;04.12.2018;FEY;;LION;49;14500;7200;128;4;30;31;8400;3000;3674;3626;1;12692;30.94;36.44;31,4;BCS1388054;7;15
009767;06.04.2021;08:39:21;Normalcharge  ;04.12.2018;FEY;;LION;49;14500;7200;192;4;32;33;8400;3000;3568;3568;1;13034;21.34;25.64;28,1;BCS1388054;7;8
009767;06.04.2021;08:40:08;Stop          ;04.12.2018;FEY;;LION;49;14500;7200;128;4;32;33;8400;3000;3651;3604;1;12947;21.34;27.44;28,5;BCS1388054;7;8
009767;08.04.2021;07:59:03;Normalcharge  ;04.12.2018;FEY;;LION;49;14500;7200;192;4;32;33;8400;3000;3568;3569;1;13035;25.24;25.94;26,4;BCS1388054;7;8
009767;08.04.2021;07:59:16;Stop          ;04.12.2018;FEY;;LION;49;14500;7200;192;4;32;33;8400;3000;3568;3568;1;13030;25.24;26.14;26,6;BCS1388054;7;8
009767;08.04.2021;08:09:05;Charge to 60% ;04.12.2018;FEY;;LION;49;14500;7200;192;4;32;33;8400;3000;3568;3568;1;13004;25.24;26.04;27,4;BCS1388054;1;14
009767;08.04.2021;10:32:41;Stop          ;04.12.2018;FEY;;LION;49;14500;7200;192;4;58;60;8400;3000;3769;3771;1;12974;27.64;28.84;28,8;BCS1388054;1;14
009767;08.04.2021;10:34:35;Normalcharge  ;04.12.2018;FEY;;LION;49;14500;7200;192;4;58;60;8400;3000;3768;3770;1;12999;27.54;28.84;28,1;BCS1388054;1;14
009767;08.04.2021;10:36:49;Stop          ;04.12.2018;FEY;;LION;49;14500;7200;128;4;58;60;8400;3000;3858;3814;1;12882;27.64;32.74;28,9;BCS1388054;1;14
009767;18.04.2021;08:33:24;Normalcharge  ;04.12.2018;FEY;;LION;49;14500;7200;192;4;57;58;8400;3000;3751;3752;1;12998;26.34;27.04;27,7;BCS1388054;1;14
009767;18.04.2021;08:33:29;Stop          ;04.12.2018;FEY;;LION;49;14500;7200;192;4;57;58;8400;3000;3751;3752;1;12995;26.34;27.04;27,7;BCS1388054;1;14
009767;04.08.2021;07:25:01;Normalcharge  ;04.12.2018;FEY;;LION;49;14500;7200;192;4;53;54;8400;3000;3710;3710;1;12994;30.54;31.34;31,5;BCS1388054;1;14
009767;04.08.2021;07:25:57;Stop          ;04.12.2018;FEY;;LION;49;14500;7200;128;4;53;54;8400;3000;3790;3744;1;12782;30.54;33.74;31,9;BCS1388054;1;14
009767;12.10.2021;12:59:04;Normalcharge  ;04.12.2018;FEY;;LION;49;14500;7200;192;4;50;51;8400;3000;3660;3660;1;13028;23.54;27.64;28,5;BCS1388054;7;8
009767;12.10.2021;12:59:37;Stop          ;04.12.2018;FEY;;LION;49;14500;7200;128;4;50;51;8400;3000;3676;3669;1;12948;23.54;28.74;28,6;BCS1388054;7;8
009767;14.10.2021;12:40:12;Normalcharge  ;04.12.2018;FEY;;LION;49;14500;7200;192;4;50;51;8400;3000;3660;3660;1;13017;23.54;25.74;27,9;BCS1388054;5;8
009767;14.10.2021;12:41:49;Stop          ;04.12.2018;FEY;;LION;49;14500;7200;128;4;51;51;8400;3000;3750;3704;1;12665;23.64;29.24;28,5;BCS1388054;5;8
009767;01.11.2021;09:52:00;Normalcharge  ;04.12.2018;FEY;;LION;49;14500;7200;192;4;51;51;8400;3000;3659;3659;1;13014;25.84;25.94;26,3;BCS1388054;5;8
009767;01.11.2021;09:53:40;Stop          ;04.12.2018;FEY;;LION;49;14500;7200;128;4;51;51;8400;3000;3749;3702;1;12600;25.94;29.54;27,3;BCS1388054;5;8
009767;01.11.2021;10:02:19;Normalcharge  ;04.12.2018;FEY;;LION;49;14500;7200;192;4;51;51;8400;3000;3662;3662;1;13009;26.04;27.84;29,5;BCS1388054;5;8
009767;01.11.2021;10:03:11;Stop          ;04.12.2018;FEY;;LION;49;14500;7200;128;4;51;51;8400;3000;3747;3699;1;12597;26.04;29.84;29,3;BCS1388054;5;8
009767;01.11.2021;10:27:35;Normalcharge  ;04.12.2018;FEY;;LION;49;14500;7200;192;4;51;51;8400;3000;3662;3663;1;13015;26.34;26.64;27,8;BCS1388054;5;8
009767;01.11.2021;10:29:14;Stop          ;04.12.2018;FEY;;LION;49;14500;7200;128;4;51;52;8400;3000;3754;3704;1;12601;26.34;30.24;28,6;BCS1388054;5;8
009767;01.11.2021;10:32:33;Charge to 60% ;04.12.2018;FEY;;LION;49;14500;7200;192;4;51;52;8400;3000;3666;3666;1;13010;26.44;28.24;29,9;BCS1388054;5;8
009767;01.11.2021;11:11:47;Stop          ;04.12.2018;FEY;;LION;49;14500;7200;128;4;59;60;8400;3000;3848;3798;1;13009;29.14;33.74;32,5;BCS1388054;5;8