Folder: Battery_sort_V2/reader/backup_20211213

Note: reader/backup_20211213/009799.txt
Serialnumber ; Date ; Time ; Action ; Date of Manufacture ; Manufacturer ; Battery Name ; Device-Chemistry ; Specification-Info ; Design-Capacity [mAh] ; Design-Voltage [mV] ; Battery Status ; Cycle Count ; SOC [%] ; Relativ SOC[%] ; Desired Voltage [mV]; Desired Current [mA]; Cell Voltage 1 [mV] ; Cell Voltage 2 [mV] ; Max_Error [%] ; Busvoltage[mV] ; Battery Temperature [°C] ; Charger Temperature [°C] ; Batterysystem ; Case ; PLace
009799;07.02.2021;08:46:43;Normalcharge  ;03.12.2018;FEY;;LION;49;14500;7200;192;5;95;97;8400;;4111;4111;1;12990;24.04;25.94;29,2;BCS1388054;1;12

File: 001015.txt
Serialnumber ; Date ; Time ; Action ; Date of Manufacture ; Manufacturer ; Battery Name ; Device-Chemistry ; Specification-Info ; Design-Capacity [mAh] ; Design-Voltage [mV] ; Battery Status ; Cycle Count ; SOC [%] ; Relativ SOC[%] ; Desired Voltage [mV]; Desired Current [mA]; Cell Voltage 1 [mV] ; Cell Voltage 2 [mV] ; Max_Error [%] ; Busvoltage[mV] ; Battery Temperature [°C] ; Charger Temperature [°C] ; Batterysystem ; Case ; PLace
001015;10.12.2019;15:29:09;Charge to 30% ;28.11.2017;FEY;;LION;49;14500;7200;224;21;91;99;8400;;4122;4122;1;13022;22.24;25.84;27,1;BCS1388054;6;17
001015;10.12.2019;20:46:41;Stop          ;28.11.2017;FEY;;LION;49;14500;7200;192;22;28;30;8400;3000;3555;3556;1;13020;32.64;34.34;33,6;BCS1388054;6;17
001015;11.12.2019;08:49:03;Fastcharge    ;28.11.2017;FEY;;LION;49;14500;7200;192;22;28;30;8400;3000;3562;3562;1;13020;25.94;28.74;31,9;BCS1388054;6;17
001015;11.12.2019;13:39:30;Stop          ;28.11.2017;FEY;;LION;49;14500;7200;224;22;93;100;8400;;4163;4163;1;13021;29.84;31.24;32,5;BCS1388054;6;17
001015;11.12.2019;15:46:47;Charge to 10% ;28.11.2017;FEY;;LION;49;14500;7200;224;22;95;100;8400;;4156;4156;1;13020;26.84;29.04;31,4;BCS1388054;6;17
001015;11.12.2019;22:52:10;Stop          ;28.11.2017;FEY;;LION;49;14500;7200;192;23;10;10;8400;3000;3354;3354;1;13019;33.24;34.04;33,0;BCS1388054;6;17
001015;12.12.2019;08:45:18;Normalcharge  ;28.11.2017;FEY;;LION;49;14500;7200;192;23;9;10;8400;3000;3362;3362;1;13019;26.14;28.84;31,7;BCS1388054;6;17
001015;12.12.2019;16:41:29;Stop          ;28.11.2017;FEY;;LION;49;14500;7200;224;23;94;100;8400;;4161;4161;1;13020;28.84;30.44;31,5;BCS1388054;6;17
001015;13.12.2019;10:48:09;Charge to 10% ;28.11.2017;FEY;;LION;49;14500;7200;224;23;94;100;8400;;4151;4152;1;13020;26.14;28.94;32,0;BCS1388054;6;17
001015;13.12.2019;13:51:54;Stop          ;28.11.2017;FEY;;LION;49;14500;7200;192;24;56;60;8400;3000;3665;3720;1;13519;34.04;42.24;36,1;BCS1388054;6;17
001015;16.12.2019;07:43:34;Charge to 10% ;28.11.2017;FEY;;LION;49;14500;7200;192;24;56;60;8400;3000;3770;3772;1;13025;22.14;26.34;31,7;BCS1388054;7;10
001015;16.12.2019;11:52:34;Stop          ;28.11.2017;FEY;;LION;49;14500;7200;192;24;10;10;8400;3000;3359;3359;1;13022;31.54;31.94;34,7;BCS1388054;7;10
001015;16.12.2019;14:44:25;Charge to 90% ;28.11.2017;FEY;;LION;49;14500;7200;192;24;9;10;8400;3000;3362;3363;1;13022;28.34;29.14;31,7;BCS1388054;7;10
001015;16.12.2019;20:53:58;Stop          ;28.11.2017;FEY;;LION;49;14500;7200;192;24;83;90;8400;3000;4048;4049;1;13024;30.64;30.04;32,1;BCS1388054;7;10
001015;17.12.2019;08:38:01;Fastcharge    ;28.11.2017;FEY;;LION;49;14500;7200;192;24;84;90;8400;3000;4040;4041;1;13023;25.64;27.64;31,6;BCS1388054;7;10
001015;17.12.2019;10:36:25;Stop          ;28.11.2017;FEY;;LION;49;14500;7200;224;24;93;100;8400;;4160;4160;1;13023;27.14;28.54;31,5;BCS1388054;7;10
001015;17.12.2019;13:38:44;Charge to 10% ;28.11.2017;FEY;;LION;49;14500;7200;224;24;93;100;8400;;4153;4153;1;13022;25.94;27.64;30,8;BCS1388054;7;10
001015;17.12.2019;20:42:03;Stop          ;28.11.2017;FEY;;LION;49;14500;7200;192;26;10;10;8400;3000;3357;3358;1;13023;32.54;31.14;32,6;BCS1388054;7;10
001015;18.12.2019;08:31:43;Fastcharge    ;28.11.2017;FEY;;LION;49;14500;7200;192;26;9;10;8400;3000;3364;3365;1;13022;25.74;27.64;31,6;BCS1388054;7;10
001015;18.12.2019;14:30:48;Stop          ;28.11.2017;FEY;;LION;49;14500;7200;224;26;92;100;8400;;4161;4161;1;13023;29.24;29.14;31,6;BCS1388054;7;10
001015;19.12.2019;08:24:17;Charge to 60% ;28.11.2017;FEY;;LION;49;14500;7200;224;26;93;100;8400;;4151;4152;1;13023;25.64;27.64;31,6;BCS1388054;7;10
001015;19.12.2019;11:28:26;Stop          ;28.11.2017;FEY;;LION;49;14500;7200;192;26;56;60;8400;3000;3768;3769;1;13024;32.64;33.04;35,1;BCS1388054;7;10
001015;19.12.2019;12:16:57;Cycle         ;28.11.2017;FEY;;LION;49;14500;7200;192;26;56;60;8400;3000;3778;3780;1;13023;29.54;29.54;32,7;BCS1388054;7;10
001015;20.12.2019;17:22:28;Stop          ;28.11.2017;FEY;;LION;49;14500;7200;224;27;93;100;8400;;4155;4154;1;13023;26.04;27.94;31,9;BCS1388054;7;10
001015;06.01.2020;06:35:02;Charge to 60% ;28.11.2017;FEY;;LION;49;14500;7200;192;27;91;98;8400;;4124;4124;1;13024;25.74;27.74;31,9;BCS1388054;7;10
001015;06.01.2020;09:29:52;Stop          ;28.11.2017;FEY;;LION;49;14500;7200;192;28;56;60;8400;3000;3764;3764;1;13023;31.84;32.04;34,0;BCS1388054;7;10
001015;06.01.2020;09:50:50;Fastcharge    ;28.11.2017;FEY;;LION;49;14500;7200;192;28;56;60;8400;3000;3772;3773;1;13024;30.44;30.04;32,7;BCS1388054;7;10
001015;06.01.2020;13:05:11;Stop          ;28.11.2017;FEY;;LION;49;14500;7200;224;28;93;100;8400;;4160;4160;1;13023;28.74;29.24;32,4;BCS1388054;7;10

File: 001038.txt
Serialnumber ; Date ; Time ; Action ; Date of Manufacture ; Manufacturer ; Battery Name ; Device-Chemistry ; Specification-Info ; Design-Capacity [mAh] ; Design-Voltage [mV] ; Battery Status ; Cycle Count ; SOC [%] ; Relativ SOC[%] ; Desired Voltage [mV]; Desired Current [mA]; Cell Voltage 1 [mV] ; Cell Voltage 2 [mV] ; Max_Error [%] ; Busvoltage[mV] ; Battery Temperature [°C] ; Charger Temperature [°C] ; Batterysystem ; Case ; PLace
001038;10.12.2019;15:29:15;Charge to 30% ;28.11.2017;FEY;;LION;49;14500;7200;224;27;93;99;8400;;4121;4121;1;13032;22.44;24.74;27,1;BCS1388054;7;13
001038;10.12.2019;20:46:56;Stop          ;28.11.2017;FEY;;LION;49;14500;7200;192;28;29;30;8400;3000;3554;3554;1;13029;32.94;33.54;33,5;BCS1388054;7;13
001038;11.12.2019;08:49:12;Fastcharge    ;28.11.2017;FEY;;LION;49;14500;7200;192;28;29;30;8400;3000;3563;3563;1;13030;26.04;27.54;31,9;BCS1388054;7;13
001038;11.12.2019;13:38:42;Stop          ;28.11.2017;FEY;;LION;49;14500;7200;224;28;94;100;8400;;4162;4162;1;13030;29.74;30.34;32,7;BCS1388054;7;13
001038;11.12.2019;15:46:56;Charge to 10% ;28.11.2017;FEY;;LION;49;14500;7200;224;28;96;100;8400;;4154;4154;1;13029;26.84;28.04;31,2;BCS1388054;7;13
001038;11.12.2019;22:51:50;Stop          ;28.11.2017;FEY;;LION;49;14500;7200;192;29;10;10;8400;3000;3353;3354;1;13029;33.34;32.84;33,0;BCS1388054;7;13
001038;12.12.2019;08:45:27;Normalcharge  ;28.11.2017;FEY;;LION;49;14500;7200;192;29;9;10;8400;3000;3361;3362;1;13030;26.14;27.74;31,7;BCS1388054;7;13
001038;12.12.2019;16:41:08;Stop          ;28.11.2017;FEY;;LION;49;14500;7200;224;29;95;100;8400;;4158;4158;1;13030;28.84;29.34;31,6;BCS1388054;7;13
001038;13.12.2019;10:48:13;Charge to 10% ;28.11.2017;FEY;;LION;49;14500;7200;224;29;95;100;8400;;4149;4148;1;13030;26.24;27.84;32,0;BCS1388054;7;13
001038;13.12.2019;13:48:48;Stop          ;28.11.2017;FEY;;LION;49;14500;7200;192;29;57;61;8400;3000;3676;3729;1;13532;34.14;42.44;36,8;BCS1388054;7;13
001038;16.12.2019;07:43:27;Charge to 10% ;28.11.2017;FEY;;LION;49;14500;7200;192;29;57;61;8400;3000;3780;3781;1;13011;22.44;28.34;31,7;BCS1388054;6;14
001038;16.12.2019;14:43:10;Stop          ;28.11.2017;FEY;;LION;49;14500;7200;192;30;10;10;8400;3000;3363;3363;1;13010;30.14;32.64;31,7;BCS1388054;6;14
001038;16.12.2019;14:44:21;Charge to 90% ;28.11.2017;FEY;;LION;49;14500;7200;192;30;10;10;8400;3000;3363;3364;1;13010;30.14;32.44;31,9;BCS1388054;6;14
001038;16.12.2019;20:54:26;Stop          ;28.11.2017;FEY;;LION;49;14500;7200;192;30;84;90;8400;3000;4047;4047;1;13012;32.24;33.44;32,1;BCS1388054;6;14
001038;17.12.2019;08:37:58;Fastcharge    ;28.11.2017;FEY;;LION;49;14500;7200;192;30;84;90;8400;3000;4039;4039;1;13010;26.44;28.84;31,6;BCS1388054;6;14
001038;17.12.2019;13:38:40;Charge to 10% ;28.11.2017;FEY;;LION;49;14500;7200;224;30;94;100;8400;;4151;4152;1;13010;26.84;29.04;30,8;BCS1388054;6;14
001038;17.12.2019;20:41:41;Stop          ;28.11.2017;FEY;;LION;49;14500;7200;192;31;10;10;8400;3000;3358;3358;1;13011;34.14;35.34;32,6;BCS1388054;6;14
001038;18.12.2019;08:31:34;Fastcharge    ;28.11.2017;FEY;;LION;49;14500;7200;192;31;9;10;8400;3000;3365;3366;1;13012;26.54;29.14;31,6;BCS1388054;6;14
001038;18.12.2019;14:33:31;Stop          ;28.11.2017;FEY;;LION;49;14500;7200;224;31;93;100;8400;;4159;4160;1;13011;30.54;31.24;31,4;BCS1388054;6;14
001038;19.12.2019;08:24:06;Charge to 60% ;28.11.2017;FEY;;LION;49;14500;7200;224;31;94;100;8400;;4150;4151;1;13010;26.54;28.84;31,5;BCS1388054;6;14
001038;19.12.2019;11:34:24;Stop          ;28.11.2017;FEY;;LION;49;14500;7200;192;31;57;60;8400;3000;3774;3774;1;13010;33.84;35.14;33,5;BCS1388054;6;14
001038;19.12.2019;12:16:53;Cycle         ;28.11.2017;FEY;;LION;49;14500;7200;192;31;57;60;8400;3000;3780;3781;1;13010;30.74;31.34;32,7;BCS1388054;6;14
001038;20.12.2019;17:31:05;Stop          ;28.11.2017;FEY;;LION;49;14500;7200;224;33;94;100;8400;;4153;4154;1;13012;26.94;28.94;30,6;BCS1388054;6;14
001038;06.01.2020;06:34:58;Charge to 60% ;28.11.2017;FEY;;LION;49;14500;7200;192;33;92;98;8400;;4124;4124;1;13012;26.74;29.04;31,9;BCS1388054;6;14
001038;06.01.2020;09:30:42;Stop          ;28.11.2017;FEY;;LION;49;14500;7200;192;33;57;60;8400;3000;3764;3765;1;13012;33.34;36.84;33,7;BCS1388054;6;14
001038;06.01.2020;09:50:46;Fastcharge    ;28.11.2017;FEY;;LION;49;14500;7200;192;33;57;60;8400;3000;3774;3775;1;13013;31.84;31.94;32,7;BCS1388054;6;14
001038;06.01.2020;13:06:22;Stop          ;28.11.2017;FEY;;LION;49;14500;7200;224;33;94;100;8400;;4160;4161;1;13013;30.24;31.54;32,1;BCS1388054;6;14

File: 007600.txt
Serialnumber ; Date ; Time ; Action ; Date of Manufacture ; Manufacturer ; Battery Name ; Device-Chemistry ; Specification-Info ; Design-Capacity [mAh] ; Design-Voltage [mV] ; Battery Status ; Cycle Count ; SOC [%] ; Relativ SOC[%] ; Desired Voltage [mV]; Desired Current [mA]; Cell Voltage 1 [mV] ; Cell Voltage 2 [mV] ; Max_Error [%] ; Busvoltage[mV] ; Battery Temperature [°C] ; Charger Temperature [°C] ; Batterysystem ; Case ; PLace
007600;13.12.2019;13:53:33;Fastcharge    ;23.10.2017;FEY;;LION;49;14500;7200;2768;8;;;8400;3000;3050;3062;1;13022;22.44;32.64;35,8;BCS1388054;7;11
007600;13.12.2019;13:55:00;Stop          ;23.10.2017;FEY;;LION;49;14500;7200;2768;8;;;8400;3000;3050;3062;1;12745;22.84;32.54;36,1;BCS1388054;7;11
007600;13.12.2019;13:55:04;Charge to 10% ;23.10.2017;FEY;;LION;49;14500;7200;2768;8;;;8400;3000;3050;3062;1;13020;22.84;32.54;36,1;BCS1388054;7;11
007600;13.12.2019;13:55:27;Stop          ;23.10.2017;FEY;;LION;49;14500;7200;144;8;;;8400;3000;3051;3065;1;13396;22.84;32.14;36,1;BCS1388054;7;11
007600;13.12.2019;13:55:29;Fastcharge    ;23.10.2017;FEY;;LION;49;14500;7200;144;8;;;8400;3000;3073;3077;1;13383;22.94;32.14;36,1;BCS1388054;7;11
007600;13.12.2019;13:55:29;Stop          ;23.10.2017;FEY;;LION;49;14500;7200;144;8;;;8400;3000;3073;3077;1;13383;22.94;32.14;36,1;BCS1388054;7;11
007600;13.12.2019;13:55:33;Normalcharge  ;23.10.2017;FEY;;LION;49;14500;7200;144;8;;;8400;3000;3073;3077;1;13033;22.94;32.14;36,1;BCS1388054;7;11
007600;13.12.2019;13:55:39;Fastcharge    ;23.10.2017;FEY;;LION;49;14500;7200;144;8;;;8400;3000;3057;3072;1;13002;22.94;32.04;36,1;BCS1388054;7;11
007600;13.12.2019;13:55:39;Stop          ;23.10.2017;FEY;;LION;49;14500;7200;144;8;;;8400;3000;3057;3072;1;13002;22.94;32.04;36,1;BCS1388054;7;11
007600;13.12.2019;13:56:34;Stop          ;23.10.2017;FEY;;LION;49;14500;7200;144;8;;;8400;3000;3273;3212;1;12710;23.14;33.24;36,2;BCS1388054;7;11
007600;13.12.2019;13:56:38;Charge to 95% ;23.10.2017;FEY;;LION;49;14500;7200;144;8;;;8400;3000;3278;3219;1;13021;23.24;33.34;36,2;BCS1388054;7;11
007600;13.12.2019;13:56:40;Stop          ;23.10.2017;FEY;;LION;49;14500;7200;144;8;;;8400;3000;3278;3219;1;13021;23.24;33.34;36,2;BCS1388054;7;11
007600;13.12.2019;13:56:48;Charge to 90% ;23.10.2017;FEY;;LION;49;14500;7200;144;8;;;8400;3000;3106;3117;1;13022;23.24;32.84;36,2;BCS1388054;7;11
007600;13.12.2019;15:42:54;Stop          ;23.10.2017;FEY;;LION;49;14500;7200;128;8;22;23;8400;3000;3606;3560;1;12961;30.44;33.34;34,5;BCS1388054;7;11
007600;13.12.2019;15:42:59;Fastcharge    ;23.10.2017;FEY;;LION;49;14500;7200;128;8;22;23;8400;3000;3606;3560;1;13022;30.44;33.34;34,4;BCS1388054;7;11
007600;13.12.2019;21:04:43;Stop          ;23.10.2017;FEY;;LION;49;14500;7200;224;8;95;100;8400;;4164;4164;1;13024;27.14;27.14;31,7;BCS1388054;7;11

File: 009516.txt
Serialnumber ; Date ; Time ; Action ; Date of Manufacture ; Manufacturer ; Battery Name ; Device-Chemistry ; Specification-Info ; Design-Capacity [mAh] ; Design-Voltage [mV] ; Battery Status ; Cycle Count ; SOC [%] ; Relativ SOC[%] ; Desired Voltage [mV]; Desired Current [mA]; Cell Voltage 1 [mV] ; Cell Voltage 2 [mV] ; Max_Error [%] ; Busvoltage[mV] ; Battery Temperature [°C] ; Charger Temperature [°C] ; Batterysystem ; Case ; PLace
009516;30.11.2020;09:42:55;Stop          ;03.12.2018;FEY;;LION;49;14500;7200;192;3;96;98;8400;;4132;4132;1;13026;27.34;28.54;31,7;BCS1388054;7;4
009516;12.01.2021;04:17:22;Charge to 90% ;03.12.2018;FEY;;LION;49;14500;7200;192;3;95;97;8400;;4115;4115;1;13013;22.84;24.44;23,5;BCS1388054;2;5
009516;12.01.2021;04:54:21;Stop          ;03.12.2018;FEY;;LION;49;14500;7200;192;3;89;90;8400;3000;4054;4054;1;13003;26.54;30.14;31,9;BCS1388054;2;5
009516;12.01.2021;05:21:40;Cycle         ;03.12.2018;FEY;;LION;49;14500;7200;192;3;89;90;8400;3000;4059;4059;1;13006;26.84;28.34;30,6;BCS1388054;2;5
009516;13.01.2021;08:20:19;Stop          ;03.12.2018;FEY;;LION;49;14500;7200;224;5;98;100;8400;;4155;4157;1;13006;26.64;28.34;30,8;BCS1388054;2;5
009516;03.03.2021;08:17:46;Normalcharge  ;03.12.2018;FEY;;LION;49;14500;7200;192;5;39;40;8400;3000;3598;3598;1;13014;22.94;23.54;23,6;BCS1388054;7;9
009516;03.03.2021;10:54:05;Stop          ;03.12.2018;FEY;;LION;49;14500;7200;128;5;71;73;8400;3000;3966;3918;1;12684;30.54;34.14;31,4;BCS1388054;7;9
009516;03.03.2021;10:55:49;Normalcharge  ;03.12.2018;FEY;;LION;49;14500;7200;192;5;71;73;8400;3000;3882;3883;1;13008;30.54;31.84;30,6;BCS1388054;7;9
009516;03.03.2021;17:03:24;Stop          ;03.12.2018;FEY;;LION;49;14500;7200;224;5;100;100;8400;;4153;4156;1;13009;26.14;27.44;31,4;BCS1388054;7;9
009516;04.04.2021;11:50:02;Normalcharge  ;03.12.2018;FEY;;LION;49;14500;7200;192;6;54;54;8400;3000;3691;3692;1;13000;24.64;24.84;27,7;BCS1388054;6;6
009516;04.04.2021;11:51:24;Stop          ;03.12.2018;FEY;;LION;49;14500;7200;128;6;54;55;8400;3000;3780;3731;1;12668;24.74;27.14;28,5;BCS1388054;6;6
009516;05.04.2021;09:37:37;Charge to 60% ;03.12.2018;FEY;;LION;49;14500;7200;192;6;54;55;8400;3000;3694;3694;1;13012;24.74;24.84;26,0;BCS1388054;1;13
009516;05.04.2021;10:01:53;Stop          ;03.12.2018;FEY;;LION;49;14500;7200;128;6;59;60;8400;3000;3775;3779;1;13008;26.94;35.14;31,2;BCS1388054;1;13
009516;22.08.2021;11:37:25;Normalcharge  ;03.12.2018;FEY;;LION;49;14500;7200;192;6;52;53;8400;3000;3658;3658;1;13010;21.64;27.54;31,9;BCS1388054;4;18
009516;22.08.2021;11:38:13;Stop          ;03.12.2018;FEY;;LION;49;14500;7200;128;6;52;53;8400;3000;3732;3691;1;12615;21.84;29.54;32,1;BCS1388054;4;18
009516;25.08.2021;08:15:08;Charge to 60% ;03.12.2018;FEY;;LION;49;14500;7200;192;6;52;53;8400;3000;3660;3661;1;13007;30.14;30.74;33,4;BCS1388054;4;18
009516;25.08.2021;12:59:17;Stop          ;03.12.2018;FEY;;LION;49;14500;7200;192;6;59;60;8400;3000;3721;3721;1;13006;32.24;32.94;36,6;BCS1388054;4;18
009516;01.11.2021;09:52:21;Normalcharge  ;03.12.2018;FEY;;LION;49;14500;7200;192;6;54;55;8400;3000;3693;3694;1;13008;25.64;25.24;26,4;BCS1388054;1;13
009516;01.11.2021;09:53:14;Stop          ;03.12.2018;FEY;;LION;49;14500;7200;128;6;54;55;8400;3000;3779;3730;1;12473;25.74;27.64;26,8;BCS1388054;1;13
009516;01.11.2021;10:01:59;Normalcharge  ;03.12.2018;FEY;;LION;49;14500;7200;192;6;54;55;8400;3000;3695;3696;1;13002;25.84;26.94;29,5;BCS1388054;1;13
009516;01.11.2021;10:03:29;Stop          ;03.12.2018;FEY;;LION;49;14500;7200;128;6;55;55;8400;3000;3786;3739;1;12473;25.84;30.24;29,3;BCS1388054;1;13
009516;01.11.2021;10:27:58;Normalcharge  ;03.12.2018;FEY;;LION;49;14500;7200;192;6;55;55;8400;3000;3698;3699;1;13004;26.14;25.84;27,8;BCS1388054;1;13
009516;01.11.2021;10:28:31;Stop          ;03.12.2018;FEY;;LION;49;14500;7200;128;6;55;55;8400;3000;3728;3712;1;12655;26.14;27.14;28,1;BCS1388054;1;13
009516;01.11.2021;10:31:48;Charge to 60% ;03.12.2018;FEY;;LION;49;14500;7200;192;6;55;55;8400;3000;3699;3700;1;13003;26.14;26.04;29,9;BCS1388054;1;13
009516;01.11.2021;11:39:51;Stop          ;03.12.2018;FEY;;LION;49;14500;7200;192;6;59;60;8400;3000;3752;3753;1;13003;27.74;28.64;32,5;BCS1388054;1;13

File: 009527.txt
Serialnumber ; Date ; Time ; Action ; Date of Manufacture ; Manufacturer ; Battery Name ; Device-Chemistry ; Specification-Info ; Design-Capacity [mAh] ; Design-Voltage [mV] ; Battery Status ; Cycle Count ; SOC [%] ; Relativ SOC[%] ; Desired Voltage [mV]; Desired Current [mA]; Cell Voltage 1 [mV] ; Cell Voltage 2 [mV] ; Max_Error [%] ; Busvoltage[mV] ; Battery Temperature [°C] ; Charger Temperature [°C] ; Batterysystem ; Case ; PLace
009527;10.12.2019;15:28:54;Charge to 30% ;03.12.2018;FEY;;LION;49;14500;7200;224;46;93;100;8400;;4130;4130;1;13010;22.34;24.34;27,1;BCS1388054;4;5
009527;10.12.2019;20:47:57;Stop          ;03.12.2018;FEY;;LION;49;14500;7200;192;47;29;30;8400;3000;3552;3553;1;13008;33.14;32.44;33,4;BCS1388054;4;5
009527;11.12.2019;08:48:41;Fastcharge    ;03.12.2018;FEY;;LION;49;14500;7200;192;47;29;30;8400;3000;3568;3568;1;13010;26.14;27.64;31,9;BCS1388054;4;5
009527;11.12.2019;13:42:44;Stop          ;03.12.2018;FEY;;LION;49;14500;7200;224;47;96;100;8400;;4165;4166;1;13010;29.24;28.94;31,9;BCS1388054;4;5
009527;11.12.2019;15:46:31;Charge to 10% ;03.12.2018;FEY;;LION;49;14500;7200;224;47;97;100;8400;;4155;4155;1;13010;26.84;27.54;31,4;BCS1388054;4;5
009527;11.12.2019;22:50:44;Stop          ;03.12.2018;FEY;;LION;49;14500;7200;192;48;10;10;8400;3000;3340;3340;1;13009;33.84;33.84;33,2;BCS1388054;4;5
009527;12.12.2019;08:45:03;Normalcharge  ;03.12.2018;FEY;;LION;49;14500;7200;192;48;9;10;8400;3000;3361;3363;1;13008;26.34;27.54;31,9;BCS1388054;4;5
009527;12.12.2019;16:41:48;Stop          ;03.12.2018;FEY;;LION;49;14500;7200;224;48;97;100;8400;;4162;4163;1;13010;28.64;28.64;31,5;BCS1388054;4;5
009527;13.12.2019;10:48:01;Charge to 10% ;03.12.2018;FEY;;LION;49;14500;7200;224;48;97;100;8400;;4149;4149;1;13010;26.34;27.84;32,0;BCS1388054;4;5
009527;13.12.2019;15:42:25;Stop          ;03.12.2018;FEY;;LION;49;14500;7200;192;49;36;37;8400;3000;3506;3556;1;13510;32.24;35.24;34,6;BCS1388054;4;5
009527;13.12.2019;15:42:27;Cycle         ;03.12.2018;FEY;;LION;49;14500;7200;192;49;36;37;8400;3000;3506;3556;1;13008;32.24;35.14;34,6;BCS1388054;4;5
009527;14.12.2019;22:44:28;Stop          ;03.12.2018;FEY;;LION;49;14500;7200;224;50;94;99;8400;;4152;4154;1;13009;26.34;27.84;32,0;BCS1388054;4;5
009527;16.12.2019;07:43:14;Charge to 10% ;03.12.2018;FEY;;LION;49;14500;7200;224;50;95;100;8400;;4146;4147;1;13010;26.14;27.04;31,9;BCS1388054;4;5
009527;16.12.2019;14:36:44;Stop          ;03.12.2018;FEY;;LION;49;14500;7200;192;51;10;10;8400;3000;3358;3359;1;13009;32.24;31.44;32,4;BCS1388054;4;5
009527;16.12.2019;14:44:13;Charge to 90% ;03.12.2018;FEY;;LION;49;14500;7200;192;51;10;10;8400;3000;3365;3367;1;13010;31.64;29.54;31,7;BCS1388054;4;5
009527;16.12.2019;20:50:27;Stop          ;03.12.2018;FEY;;LION;49;14500;7200;192;51;85;90;8400;3000;4063;4064;1;13011;31.24;30.14;31,6;BCS1388054;4;5
009527;17.12.2019;08:37:49;Fastcharge    ;03.12.2018;FEY;;LION;49;14500;7200;192;51;85;90;8400;3000;4047;4048;1;13009;26.14;27.64;31,6;BCS1388054;4;5
009527;17.12.2019;10:31:06;Stop          ;03.12.2018;FEY;;LION;49;14500;7200;224;51;96;100;8400;;4161;4161;1;13010;27.64;28.04;31,4;BCS1388054;4;5
009527;17.12.2019;13:38:32;Charge to 10% ;03.12.2018;FEY;;LION;49;14500;7200;224;51;96;100;8400;;4151;4151;1;13010;26.44;27.44;30,8;BCS1388054;4;5
009527;17.12.2019;20:34:29;Stop          ;03.12.2018;FEY;;LION;49;14500;7200;192;52;10;10;8400;3000;3358;3358;1;13007;33.84;32.74;34,1;BCS1388054;4;5
009527;18.12.2019;08:31:26;Fastcharge    ;03.12.2018;FEY;;LION;49;14500;7200;192;52;10;10;8400;3000;3372;3373;1;13009;26.34;27.34;31,6;BCS1388054;4;5
009527;18.12.2019;14:29:12;Stop          ;03.12.2018;FEY;;LION;49;14500;7200;224;52;96;100;8400;;4164;4164;1;13010;29.34;29.14;31,9;BCS1388054;4;5
009527;19.12.2019;08:23:58;Charge to 60% ;03.12.2018;FEY;;LION;49;14500;7200;224;52;97;100;8400;;4149;4149;1;13010;26.24;27.64;31,6;BCS1388054;4;5
009527;19.12.2019;11:30:18;Stop          ;03.12.2018;FEY;;LION;49;14500;7200;192;53;58;60;8400;3000;3763;3763;1;13009;33.74;33.04;34,6;BCS1388054;4;5
009527;19.12.2019;12:16:45;Cycle         ;03.12.2018;FEY;;LION;49;14500;7200;192;53;58;60;8400;3000;3780;3780;1;13009;29.94;29.54;32,7;BCS1388054;4;5
009527;20.12.2019;17:30:48;Stop          ;03.12.2018;FEY;;LION;49;14500;7200;224;54;95;100;8400;;4152;4153;1;13010;26.44;27.24;30,6;BCS1388054;4;5
009527;06.01.2020;06:34:50;Charge to 60% ;03.12.2018;FEY;;LION;49;14500;7200;224;54;94;99;8400;;4122;4123;1;13009;26.34;27.74;31,9;BCS1388054;4;5
009527;06.01.2020;09:30:33;Stop          ;03.12.2018;FEY;;LION;49;14500;7200;192;55;57;60;8400;3000;3759;3760;1;13009;32.84;32.84;33,7;BCS1388054;4;5
009527;06.01.2020;09:50:38;Fastcharge    ;03.12.2018;FEY;;LION;49;14500;7200;192;55;57;60;8400;3000;3776;3779;1;13010;31.14;30.54;32,7;BCS1388054;4;5
009527;06.01.2020;13:09:19;Stop          ;03.12.2018;FEY;;LION;49;14500;7200;224;55;95;100;8400;;4164;4165;1;13011;28.84;28.44;31,4;BCS1388054;4;5