Folder: Battery_sort_V2/reader/Batterieverzeichnis (part 14)

File: 009843.txt
Serialnumber ; Date ; Time ; Action ; Date of Manufacture ; Manufacturer ; Battery Name ; Device-Chemistry ; Specification-Info ; Design-Capacity [mAh] ; Design-Voltage [mV] ; Battery Status ; Cycle Count ; SOC [%] ; Relativ SOC[%] ; Desired Voltage [mV]; Desired Current [mA]; Cell Voltage 1 [mV] ; Cell Voltage 2 [mV] ; Max_Error [%] ; Busvoltage[mV] ; Battery Temperature [°C] ; Charger Temperature [°C] ; Batterysystem ; Case ; PLace
009843;07.02.2021;08:46:43;Normalcharge  ;03.12.2018;FEY;;LION;49;14500;7200;192;5;95;97;8400;;4111;4111;1;12990;24.04;25.94;29,2;BCS1388054;1;12
009843;07.02.2021;11:52:07;Stop          ;03.12.2018;FEY;;LION;49;14500;7200;192;5;95;97;8400;;4111;4112;1;12991;25.84;26.54;29,7;BCS1388054;1;12
009843;03.03.2021;08:17:21;Normalcharge  ;03.12.2018;FEY;;LION;49;14500;7200;192;5;88;91;8400;3000;4051;4052;1;13016;23.34;22.54;23,5;BCS1388054;3;17
009843;04.03.2021;07:53:40;Stop           ;03.12.2018;FEY;;LION;49;14500;7200;224;5;98;100;8400;;4146;4148;1;13009;26.64;27.14;31,5;BCS1388054;3;17
009843;04.04.2021;11:50:39;Normalcharge  ;03.12.2018;FEY;;LION;49;14500;7200;192;6;53;55;8400;3000;3695;3696;1;12996;25.14;25.74;28,1;BCS1388054;1;11
009843;04.04.2021;11:51:54;Stop          ;03.12.2018;FEY;;LION;49;14500;7200;128;6;53;55;8400;3000;3784;3737;1;12550;25.14;28.24;28,8;BCS1388054;1;11
009843;05.04.2021;09:38:00;Ladung auf 60% ;03.12.2018;FEY;;LION;49;14500;7200;192;6;53;55;8400;3000;3698;3699;1;13009;25.34;26.64;26,3;BCS1388054;3;13
009843;05.04.2021;10:06:07;Stop           ;03.12.2018;FEY;;LION;49;14500;7200;192;6;57;60;8400;3000;3761;3761;1;13006;27.34;31.14;31,4;BCS1388054;3;13
009843;22.08.2021;11:08:13;Normalcharge  ;03.12.2018;FEY;;LION;49;14500;7200;192;6;53;55;8400;3000;3701;3702;1;12999;30.04;29.64;32,2;BCS1388054;6;5
009843;22.08.2021;11:08:46;Stop          ;03.12.2018;FEY;;LION;49;14500;7200;128;6;53;55;8400;3000;3732;3715;1;12811;30.04;30.74;32,5;BCS1388054;6;5
009843;25.08.2021;08:13:04;Normalcharge  ;03.12.2018;FEY;;LION;49;14500;7200;192;6;53;55;8400;3000;3700;3702;1;13029;30.64;30.74;32,4;BCS1388054;7;14
009843;25.08.2021;08:13:16;Stop          ;03.12.2018;FEY;;LION;49;14500;7200;192;6;53;55;8400;3000;3700;3702;1;13018;30.64;30.94;32,5;BCS1388054;7;14
009843;25.08.2021;08:14:41;Charge to 60% ;03.12.2018;FEY;;LION;49;14500;7200;192;6;53;55;8400;3000;3701;3702;1;13028;30.64;31.14;33,0;BCS1388054;7;14
009843;25.08.2021;08:37:46;Stop          ;03.12.2018;FEY;;LION;49;14500;7200;192;6;57;60;8400;3000;3757;3758;1;12755;32.24;36.14;36,1;BCS1388054;7;14
009843;25.08.2021;08:38:03;Charge to 60% ;03.12.2018;FEY;;LION;49;14500;7200;192;6;57;60;8400;3000;3757;3758;1;13026;32.24;35.94;36,1;BCS1388054;7;14
009843;25.08.2021;13:26:36;Stop          ;03.12.2018;FEY;;LION;49;14500;7200;192;6;57;60;8400;3000;3751;3752;1;13026;33.14;34.04;36,4;BCS1388054;7;14

File: 009844.txt
Serialnumber ; Date ; Time ; Action ; Date of Manufacture ; Manufacturer ; Battery Name ; Device-Chemistry ; Specification-Info ; Design-Capacity [mAh] ; Design-Voltage [mV] ; Battery Status ; Cycle Count ; SOC [%] ; Relativ SOC[%] ; Desired Voltage [mV]; Desired Current [mA]; Cell Voltage 1 [mV] ; Cell Voltage 2 [mV] ; Max_Error [%] ; Busvoltage[mV] ; Battery Temperature [°C] ; Charger Temperature [°C] ; Batterysystem ; Case ; PLace
009844;12.01.2021;04:17:47;Charge to 90% ;04.12.2018;FEY;;LION;49;14500;7200;224;5;96;99;8400;;4129;4129;1;13026;22.54;23.84;23,8;BCS1388054;7;17
009844;12.01.2021;04:57:20;Stop          ;04.12.2018;FEY;;LION;49;14500;7200;192;5;86;90;8400;3000;4036;4037;1;13021;26.44;32.14;31,5;BCS1388054;7;17
009844;12.01.2021;05:22:01;Cycle         ;04.12.2018;FEY;;LION;49;14500;7200;192;5;86;90;8400;3000;4049;4050;1;13021;26.24;27.64;30,4;BCS1388054;7;17
009844;13.01.2021;08:19:29;Stop          ;04.12.2018;FEY;;LION;49;14500;7200;224;6;95;100;8400;;4155;4155;1;13023;26.04;27.64;30,7;BCS1388054;7;17
009844;22.02.2021;17:31:46;Normalcharge  ;04.12.2018;FEY;;LION;49;14500;7200;192;7;46;49;8400;3000;3656;3657;1;13005;25.94;26.74;31,6;BCS1388054;1;7
009844;22.02.2021;23:06:28;Stop          ;04.12.2018;FEY;;LION;49;14500;7200;224;7;96;100;8400;;4155;4156;1;13007;26.34;27.64;30,6;BCS1388054;1;7
009844;04.04.2021;11:50:10;Normalcharge  ;04.12.2018;FEY;;LION;49;14500;7200;192;7;53;55;8400;3000;3694;3696;1;13003;24.54;25.24;27,8;BCS1388054;5;6
009844;04.04.2021;11:51:30;Stop          ;04.12.2018;FEY;;LION;49;14500;7200;128;7;54;55;8400;3000;3783;3737;1;12671;24.54;27.44;28,5;BCS1388054;5;6
009844;05.04.2021;09:37:46;Charge to 60% ;04.12.2018;FEY;;LION;49;14500;7200;192;7;53;55;8400;3000;3697;3699;1;13007;24.54;26.24;26,1;BCS1388054;2;8
009844;05.04.2021;10:03:48;Stop          ;04.12.2018;FEY;;LION;49;14500;7200;192;7;58;60;8400;3000;3756;3762;1;13002;26.54;29.94;31,4;BCS1388054;2;8
009844;22.08.2021;11:07:51;Normalcharge  ;04.12.2018;FEY;;LION;49;14500;7200;192;8;42;43;8400;3000;3610;3611;1;12980;22.14;31.04;32,0;BCS1388054;1;12
009844;22.08.2021;11:08:23;Stop          ;04.12.2018;FEY;;LION;49;14500;7200;128;8;42;43;8400;3000;3665;3636;1;12576;22.34;31.84;32,4;BCS1388054;1;12
009844;25.08.2021;08:14:57;Charge to 60% ;04.12.2018;FEY;;LION;49;14500;7200;192;8;42;43;8400;3000;3612;3613;1;12990;29.84;32.44;33,2;BCS1388054;6;14
009844;25.08.2021;09:50:39;Stop          ;04.12.2018;FEY;;LION;49;14500;7200;192;8;58;60;8400;3000;3737;3740;1;12991;34.24;36.34;36,4;BCS1388054;6;14
009844;01.11.2021;10:18:21;Normalcharge  ;04.12.2018;FEY;;LION;49;14500;7200;192;8;54;56;8400;3000;3706;3707;1;13011;25.14;27.34;28,4;BCS1388054;4;10
009844;01.11.2021;10:19:03;Stop          ;04.12.2018;FEY;;LION;49;14500;7200;128;8;54;56;8400;3000;3789;3744;1;12574;25.24;29.24;28,2;BCS1388054;4;10
009844;01.11.2021;10:28:22;Normalcharge  ;04.12.2018;FEY;;LION;49;14500;7200;192;8;54;56;8400;3000;3707;3708;1;13010;25.34;27.64;27,9;BCS1388054;4;10
009844;01.11.2021;10:29:09;Stop          ;04.12.2018;FEY;;LION;49;14500;7200;128;8;54;56;8400;3000;3792;3745;1;12575;25.34;29.64;28,5;BCS1388054;4;10

File: 009853.txt
Serialnumber ; Date ; Time ; Action ; Date of Manufacture ; Manufacturer ; Battery Name ; Device-Chemistry ; Specification-Info ; Design-Capacity [mAh] ; Design-Voltage [mV] ; Battery Status ; Cycle Count ; SOC [%] ; Relativ SOC[%] ; Desired Voltage [mV]; Desired Current [mA]; Cell Voltage 1 [mV] ; Cell Voltage 2 [mV] ; Max_Error [%] ; Busvoltage[mV] ; Battery Temperature [°C] ; Charger Temperature [°C] ; Batterysystem ; Case ; PLace
009853;07.12.2020;04:14:40;Cycle         ;04.12.2018;FEY;;LION;49;14500;7200;16576;2;94;95;;;4094;4095;1;13033;25.64;27.14;30,3;BCS1388054;7;14
009853;08.12.2020;16:20:20;Stop          ;04.12.2018;FEY;;LION;49;14500;7200;16576;2;94;95;;;4094;4094;1;13031;27.74;28.54;31,9;BCS1388054;7;14
009853;07.02.2021;08:47:07;Normalcharge  ;04.12.2018;FEY;;LION;49;14500;7200;192;2;84;85;8400;3000;4000;4001;1;13005;23.54;26.04;29,2;BCS1388054;5;3
009853;07.02.2021;11:50:11;Stop          ;04.12.2018;FEY;;LION;49;14500;7200;224;2;99;100;8400;;4153;4153;1;13004;25.84;27.54;30,0;BCS1388054;5;3
009853;03.03.2021;08:17:17;Normalcharge  ;04.12.2018;FEY;;LION;49;14500;7200;192;2;93;95;8400;3000;4091;4091;1;13014;23.14;24.24;23,5;BCS1388054;2;5
009853;04.03.2021;07:53:46;Stop          ;04.12.2018;FEY;;LION;49;14500;7200;224;2;98;100;8400;;4147;4147;1;13007;26.34;28.04;31,6;BCS1388054;2;5
009853;04.04.2021;11:50:22;Normalcharge  ;04.12.2018;FEY;;LION;49;14500;7200;192;3;53;55;8400;3000;3697;3697;1;13016;24.94;26.04;27,9;BCS1388054;4;4
009853;04.04.2021;11:51:36;Stop          ;04.12.2018;FEY;;LION;49;14500;7200;128;3;53;55;8400;3000;3784;3737;1;12738;24.94;28.94;28,6;BCS1388054;4;4
009853;05.04.2021;09:38:00;Ladung auf 60% ;04.12.2018;FEY;;LION;49;14500;7200;192;3;53;55;8400;3000;3699;3699;1;13019;25.14;25.44;26,3;BCS1388054;3;14
009853;05.04.2021;10:06:07;Stop           ;04.12.2018;FEY;;LION;49;14500;7200;192;3;58;60;8400;3000;3764;3760;1;13014;27.14;29.94;31,4;BCS1388054;3;14
009853;22.08.2021;11:08:13;Normalcharge  ;04.12.2018;FEY;;LION;49;14500;7200;192;3;54;55;8400;3000;3703;3702;1;12994;29.94;29.74;32,2;BCS1388054;6;6
009853;22.08.2021;11:08:46;Stop          ;04.12.2018;FEY;;LION;49;14500;7200;128;3;54;55;8400;3000;3735;3716;1;12804;29.94;30.74;32,5;BCS1388054;6;6