Folder: Battery_sort_V2/reader/Batterieverzeichnis (part 9)

File: 009743.txt
Serialnumber ; Date ; Time ; Action ; Date of Manufacture ; Manufacturer ; Battery Name ; Device-Chemistry ; Specification-Info ; Design-Capacity [mAh] ; Design-Voltage [mV] ; Battery Status ; Cycle Count ; SOC [%] ; Relativ SOC[%] ; Desired Voltage [mV]; Desired Current [mA]; Cell Voltage 1 [mV] ; Cell Voltage 2 [mV] ; Max_Error [%] ; Busvoltage[mV] ; Battery Temperature [°C] ; Charger Temperature [°C] ; Batterysystem ; Case ; PLace
009743;30.11.2020;09:42:55;Stop          ;04.12.2018;FEY;;LION;49;14500;7200;224;4;97;100;8400;;4154;4153;1;13016;27.44;27.64;31,7;BCS1388054;7;11
009743;07.02.2021;08:47:00;Normalcharge  ;04.12.2018;FEY;;LION;49;14500;7200;192;4;90;93;8400;3000;4064;4063;1;13009;23.44;25.34;29,2;BCS1388054;4;8
009743;07.02.2021;11:52:20;Stop          ;04.12.2018;FEY;;LION;49;14500;7200;224;4;98;100;8400;;4150;4149;1;13009;25.94;26.64;29,7;BCS1388054;4;8
009743;03.03.2021;08:17:35;Normalcharge  ;04.12.2018;FEY;;LION;49;14500;7200;192;5;73;76;8400;3000;3895;3893;1;13010;23.04;23.64;23,6;BCS1388054;5;12
009743;03.03.2021;11:26:36;Stop          ;04.12.2018;FEY;;LION;49;14500;7200;224;5;97;100;8400;;4158;4155;1;13003;28.04;28.44;31,5;BCS1388054;5;12
009743;04.04.2021;11:49:55;Normalcharge  ;04.12.2018;FEY;;LION;49;14500;7200;192;5;52;54;8400;3000;3689;3687;1;13030;24.94;25.34;27,5;BCS1388054;7;4
009743;04.04.2021;11:51:17;Stop          ;04.12.2018;FEY;;LION;49;14500;7200;128;5;52;54;8400;3000;3778;3728;1;12749;24.94;28.74;28,4;BCS1388054;7;4
009743;05.04.2021;09:38:11;Charge to 60% ;04.12.2018;FEY;;LION;49;14500;7200;192;5;52;54;8400;3000;3692;3689;1;13005;24.84;25.64;26,3;BCS1388054;4;6
009743;05.04.2021;10:13:52;Stop          ;04.12.2018;FEY;;LION;49;14500;7200;192;5;57;60;8400;3000;3762;3755;1;13002;27.14;28.04;32,1;BCS1388054;4;6
009743;22.08.2021;11:37:21;Normalcharge  ;04.12.2018;FEY;;LION;49;14500;7200;192;5;51;53;8400;3000;3661;3659;1;13014;22.24;28.64;31,9;BCS1388054;5;18
009743;22.08.2021;11:38:04;Stop          ;04.12.2018;FEY;;LION;49;14500;7200;128;5;51;53;8400;3000;3728;3686;1;12759;22.44;30.24;32,0;BCS1388054;5;18
009743;25.08.2021;08:15:02;Charge to 60% ;04.12.2018;FEY;;LION;49;14500;7200;192;5;51;53;8400;3000;3663;3661;1;13011;30.24;31.74;33,2;BCS1388054;5;18
009743;25.08.2021;13:03:31;Stop          ;04.12.2018;FEY;;LION;49;14500;7200;192;5;58;60;8400;3000;3725;3722;1;13009;32.44;34.24;36,6;BCS1388054;5;18
009743;01.11.2021;10:18:16;Normalcharge  ;04.12.2018;FEY;;LION;49;14500;7200;192;5;54;55;8400;3000;3698;3695;1;13006;25.94;26.44;28,2;BCS1388054;3;15
009743;01.11.2021;10:18:56;Stop           ;04.12.2018;FEY;;LION;49;14500;7200;128;5;54;55;8400;3000;3775;3729;1;12606;25.94;28.24;28,2;BCS1388054;3;15
009743;01.11.2021;10:27:50;Normalcharge  ;04.12.2018;FEY;;LION;49;14500;7200;192;5;54;55;8400;3000;3699;3697;1;13011;25.94;26.64;27,8;BCS1388054;3;15
009743;01.11.2021;10:29:05;Stop           ;04.12.2018;FEY;;LION;49;14500;7200;128;5;54;55;8400;3000;3789;3739;1;12573;25.94;29.94;28,5;BCS1388054;3;15

File: 009744.txt
Serialnumber ; Date ; Time ; Action ; Date of Manufacture ; Manufacturer ; Battery Name ; Device-Chemistry ; Specification-Info ; Design-Capacity [mAh] ; Design-Voltage [mV] ; Battery Status ; Cycle Count ; SOC [%] ; Relativ SOC[%] ; Desired Voltage [mV]; Desired Current [mA]; Cell Voltage 1 [mV] ; Cell Voltage 2 [mV] ; Max_Error [%] ; Busvoltage[mV] ; Battery Temperature [°C] ; Charger Temperature [°C] ; Batterysystem ; Case ; PLace
009744;24.11.2020;08:56:08;Normalcharge  ;04.12.2018;FEY;;LION;49;14500;7200;192;3;17;17;8400;3000;3437;3437;1;13002;23.74;26.64;25,7;BCS1388054;1;15
009744;24.11.2020;08:59:34;Stop          ;04.12.2018;FEY;;LION;49;14500;7200;128;3;18;18;8400;3000;3547;3499;1;12905;24.14;32.54;26,4;BCS1388054;1;15
009744;24.11.2020;08:59:41;Normalcharge  ;04.12.2018;FEY;;LION;49;14500;7200;128;3;18;18;8400;3000;3463;3465;1;12997;24.24;32.54;26,4;BCS1388054;1;15
009744;24.11.2020;16:23:04;Stop          ;04.12.2018;FEY;;LION;49;14500;7200;224;3;100;100;8400;;4166;4162;1;12994;26.94;30.84;28,5;BCS1388054;1;15
009744;07.12.2020;04:14:21;Cycle         ;04.12.2018;FEY;;LION;49;14500;7200;224;3;98;99;8400;;4140;4137;1;12999;25.84;28.64;30,3;BCS1388054;2;2
009744;08.12.2020;16:19:44;Stop          ;04.12.2018;FEY;;LION;49;14500;7200;224;4;97;100;8400;;4152;4151;1;13000;27.84;30.14;31,9;BCS1388054;2;2
009744;03.03.2021;08:17:46;Normalcharge  ;04.12.2018;FEY;;LION;49;14500;7200;192;5;64;66;8400;3000;3808;3810;1;13033;23.24;23.64;23,6;BCS1388054;7;1
009744;03.03.2021;10:54:05;Stop          ;04.12.2018;FEY;;LION;49;14500;7200;128;5;95;97;8400;3000;4182;4148;1;12725;29.64;33.64;31,4;BCS1388054;7;1
009744;03.03.2021;10:55:49;Normalcharge  ;04.12.2018;FEY;;LION;49;14500;7200;192;5;95;98;8400;3000;4118;4117;1;13027;29.64;31.34;30,6;BCS1388054;7;1
009744;03.03.2021;17:03:24;Stop          ;04.12.2018;FEY;;LION;49;14500;7200;224;5;98;100;8400;;4151;4150;1;13028;26.34;28.34;31,4;BCS1388054;7;1
009744;04.04.2021;11:49:55;Normalcharge  ;04.12.2018;FEY;;LION;49;14500;7200;192;5;59;60;8400;3000;3746;3751;1;13018;25.14;24.84;27,5;BCS1388054;7;15
009744;04.04.2021;11:51:17;Stop          ;04.12.2018;FEY;;LION;49;14500;7200;128;5;59;60;8400;3000;3839;3797;1;12733;25.14;28.14;28,4;BCS1388054;7;15
009744;05.04.2021;09:37:37;Charge to 60% ;04.12.2018;FEY;;LION;49;14500;7200;192;5;59;60;8400;3000;3750;3756;1;13001;25.14;26.84;26,0;BCS1388054;1;3
009744;05.04.2021;10:01:53;Stop          ;04.12.2018;FEY;;LION;49;14500;7200;192;5;59;60;8400;3000;3750;3755;1;12998;25.84;29.54;31,2;BCS1388054;1;3
009744;22.08.2021;11:08:18;Normalcharge  ;04.12.2018;FEY;;LION;49;14500;7200;192;5;55;57;8400;3000;3706;3708;1;13023;29.84;30.94;32,2;BCS1388054;7;10
009744;22.08.2021;11:08:51;Stop          ;04.12.2018;FEY;;LION;49;14500;7200;128;5;55;57;8400;3000;3736;3721;1;12865;29.94;32.04;32,6;BCS1388054;7;10
009744;25.08.2021;08:15:19;Charge to 60% ;04.12.2018;FEY;;LION;49;14500;7200;192;5;55;57;8400;3000;3706;3707;1;12992;30.34;32.54;33,5;BCS1388054;2;5
009744;25.08.2021;10:43:16;Stop          ;04.12.2018;FEY;;LION;49;14500;7200;192;5;58;60;8400;3000;3740;3742;1;12991;32.74;34.54;36,4;BCS1388054;2;5
009744;01.11.2021;09:51:48;Normalcharge  ;04.12.2018;FEY;;LION;49;14500;7200;192;5;55;57;8400;3000;3712;3714;1;13033;26.04;25.54;26,3;BCS1388054;7;16
009744;01.11.2021;09:53:51;Stop          ;04.12.2018;FEY;;LION;49;14500;7200;128;5;56;57;8400;3000;3806;3760;1;12659;26.14;29.24;27,4;BCS1388054;7;16
009744;01.11.2021;10:02:29;Normalcharge  ;04.12.2018;FEY;;LION;49;14500;7200;192;5;56;57;8400;3000;3717;3719;1;13029;26.24;27.24;29,5;BCS1388054;7;16
009744;01.11.2021;10:03:04;Stop          ;04.12.2018;FEY;;LION;49;14500;7200;128;5;56;57;8400;3000;3777;3744;1;12682;26.24;28.34;29,3;BCS1388054;7;16
009744;01.11.2021;10:27:23;Normalcharge  ;04.12.2018;FEY;;LION;49;14500;7200;192;5;56;57;8400;3000;3717;3719;1;13031;26.44;26.24;27,7;BCS1388054;7;16
009744;01.11.2021;10:29:22;Stop          ;04.12.2018;FEY;;LION;49;14500;7200;128;5;56;57;8400;3000;3813;3766;1;12661;26.44;29.94;28,6;BCS1388054;7;16
009744;01.11.2021;10:32:51;Charge to 60% ;04.12.2018;FEY;;LION;49;14500;7200;192;5;56;58;8400;3000;3723;3724;1;13029;26.54;27.74;29,7;BCS1388054;7;16
009744;01.11.2021;11:46:27;Stop          ;04.12.2018;FEY;;LION;49;14500;7200;192;5;58;60;8400;3000;3748;3750;1;13028;27.94;28.54;32,5;BCS1388054;7;16
009744;07.02.2022;08:51:46;Normalcharge  ;04.12.2018;FEY;;LION;49;14500;7200;192;5;56;57;8400;3000;3711;3713;1;13006;22.44;24.04;25,6;BCS1388054;2;2
009744;07.02.2022;13:15:56;Stop          ;04.12.2018;FEY;;LION;49;14500;7200;224;5;98;100;8400;;4160;4160;1;13001;26.44;28.24;31,1;BCS1388054;2;2
009744;14.03.2022;12:14:39;Normalcharge  ;04.12.2018;FEY;;LION;49;14500;7200;224;5;96;99;8400;;4130;4129;1;13012;24.54;25.54;27,7;BCS1388054;2;9
009744;14.03.2022;12:15:13;Stop          ;04.12.2018;FEY;;LION;49;14500;7200;224;5;96;99;8400;;4129;4129;1;13011;24.54;25.74;27,9;BCS1388054;2;9
009744;14.03.2022;12:17:51;Normalcharge  ;04.12.2018;FEY;;LION;49;14500;7200;224;5;96;99;8400;;4130;4129;1;13009;24.54;26.14;29,2;BCS1388054;2;9
009744;14.03.2022;12:18:32;Stop          ;04.12.2018;FEY;;LION;49;14500;7200;224;5;96;99;8400;;4130;4129;1;13009;24.54;26.14;29,5;BCS1388054;2;9
009744;14.03.2022;12:19:02;Normalcharge  ;04.12.2018;FEY;;LION;49;14500;7200;224;5;96;99;8400;;4130;4129;1;13009;24.54;26.24;29,5;BCS1388054;2;9
009744;14.03.2022;12:19:06;Stop          ;04.12.2018;FEY;;LION;49;14500;7200;224;5;96;99;8400;;4130;4129;1;13009;24.54;26.14;29,6;BCS1388054;2;9
009744;29.03.2022;08:21:01;Normalcharge  ;04.12.2018;FEY;;LION;49;14500;7200;192;5;86;88;8400;3000;4012;4013;1;13008;24.94;25.14;25,8;BCS1388054;3;10
009744;29.03.2022;08:21:40;Stop           ;04.12.2018;FEY;;LION;49;14500;7200;128;5;86;88;8400;3000;4067;4038;1;12640;24.94;26.64;26,0;BCS1388054;3;10
009744;29.03.2022;08:22:08;Normalcharge  ;04.12.2018;FEY;;LION;49;14500;7200;128;5;86;88;8400;3000;4015;4017;1;13007;24.94;26.24;26,3;BCS1388054;3;10
009744;29.03.2022;08:22:36;Stop           ;04.12.2018;FEY;;LION;49;14500;7200;128;5;86;88;8400;3000;4051;4032;1;12706;24.94;26.94;26,4;BCS1388054;3;10

File: 009745.txt
Serialnumber ; Date ; Time ; Action ; Date of Manufacture ; Manufacturer ; Battery Name ; Device-Chemistry ; Specification-Info ; Design-Capacity [mAh] ; Design-Voltage [mV] ; Battery Status ; Cycle Count ; SOC [%] ; Relativ SOC[%] ; Desired Voltage [mV]; Desired Current [mA]; Cell Voltage 1 [mV] ; Cell Voltage 2 [mV] ; Max_Error [%] ; Busvoltage[mV] ; Battery Temperature [°C] ; Charger Temperature [°C] ; Batterysystem ; Case ; PLace
009745;07.12.2020;04:14:28;Cycle         ;04.12.2018;FEY;;LION;49;14500;7200;192;2;97;98;8400;;4135;4136;1;12990;25.54;26.74;30,3;BCS1388054;4;11
009745;08.12.2020;16:19:56;Stop          ;04.12.2018;FEY;;LION;49;14500;7200;192;2;97;98;8400;;4133;4134;1;12989;27.64;28.04;31,9;BCS1388054;4;11
009745;12.01.2021;04:17:47;Charge to 90% ;04.12.2018;FEY;;LION;49;14500;7200;192;2;96;97;8400;;4121;4121;1;13025;22.94;23.54;23,8;BCS1388054;7;7
009745;12.01.2021;04:57:19;Stop          ;04.12.2018;FEY;;LION;49;14500;7200;192;2;89;90;8400;3000;4058;4057;1;13019;26.74;28.94;31,5;BCS1388054;7;7
009745;12.01.2021;05:22:01;Cycle         ;04.12.2018;FEY;;LION;49;14500;7200;192;2;89;90;8400;3000;4062;4061;1;13020;26.74;27.74;30,4;BCS1388054;7;7
009745;13.01.2021;08:19:29;Stop          ;04.12.2018;FEY;;LION;49;14500;7200;224;3;97;100;8400;;4156;4156;1;13018;26.54;27.74;30,7;BCS1388054;7;7
009745;21.02.2021;13:45:29;Normalcharge  ;04.12.2018;FEY;;LION;49;14500;7200;192;4;46;47;8400;3000;3639;3638;1;13020;22.54;23.84;27,8;BCS1388054;6;15
009745;06.04.2021;08:38:46;Normalcharge  ;04.12.2018;FEY;;LION;49;14500;7200;224;4;97;99;8400;;4129;4130;1;13010;20.34;25.64;28,1;BCS1388054;2;4
009745;06.04.2021;08:39:36;Stop          ;04.12.2018;FEY;;LION;49;14500;7200;224;4;97;99;8400;;4129;4130;1;13009;20.44;26.04;28,2;BCS1388054;2;4
009745;08.04.2021;07:57:57;Normalcharge  ;04.12.2018;FEY;;LION;49;14500;7200;224;4;97;99;8400;;4129;4130;1;13010;25.14;25.74;26,3;BCS1388054;2;4
009745;08.04.2021;07:59:45;Stop          ;04.12.2018;FEY;;LION;49;14500;7200;224;4;97;99;8400;;4129;4130;1;13007;25.14;26.74;26,8;BCS1388054;2;4
009745;08.04.2021;10:35:00;Normalcharge  ;04.12.2018;FEY;;LION;49;14500;7200;224;4;97;99;8400;;4129;4130;1;13010;25.54;26.14;28,1;BCS1388054;2;4
009745;08.04.2021;10:36:53;Stop          ;04.12.2018;FEY;;LION;49;14500;7200;224;4;97;99;8400;;4129;4130;1;13007;25.54;27.24;28,9;BCS1388054;2;4
009745;18.04.2021;08:33:36;Normalcharge  ;04.12.2018;FEY;;LION;49;14500;7200;192;4;96;98;8400;;4125;4126;1;13007;26.04;27.24;27,7;BCS1388054;2;4
009745;18.04.2021;08:33:44;Stop          ;04.12.2018;FEY;;LION;49;14500;7200;192;4;96;98;8400;;4125;4126;1;13006;26.04;27.24;27,8;BCS1388054;2;4
009745;04.08.2021;07:24:55;Normalcharge  ;04.12.2018;FEY;;LION;49;14500;7200;192;4;94;96;8400;;4093;4093;1;12999;30.34;31.54;31,5;BCS1388054;2;4
009745;04.08.2021;07:25:47;Stop          ;04.12.2018;FEY;;LION;49;14500;7200;192;4;94;96;8400;;4092;4093;1;12997;30.34;32.04;31,9;BCS1388054;2;4
009745;22.08.2021;11:08:09;Normalcharge  ;04.12.2018;FEY;;LION;49;14500;7200;192;4;90;92;8400;3000;4056;4056;1;13012;22.24;28.54;32,1;BCS1388054;5;17
009745;22.08.2021;11:08:42;Stop          ;04.12.2018;FEY;;LION;49;14500;7200;128;4;90;92;8400;3000;4081;4069;1;12846;22.24;29.84;32,5;BCS1388054;5;17

File: 009746.txt
Serialnumber ; Date ; Time ; Action ; Date of Manufacture ; Manufacturer ; Battery Name ; Device-Chemistry ; Specification-Info ; Design-Capacity [mAh] ; Design-Voltage [mV] ; Battery Status ; Cycle Count ; SOC [%] ; Relativ SOC[%] ; Desired Voltage [mV]; Desired Current [mA]; Cell Voltage 1 [mV] ; Cell Voltage 2 [mV] ; Max_Error [%] ; Busvoltage[mV] ; Battery Temperature [°C] ; Charger Temperature [°C] ; Batterysystem ; Case ; PLace
009746;07.12.2020;04:14:17;Cycle         ;04.12.2018;FEY;;LION;49;14500;7200;224;3;100;99;8400;;4149;4148;1;12999;25.54;26.64;30,3;BCS1388054;1;10
009746;08.12.2020;16:19:38;Stop          ;04.12.2018;FEY;;LION;49;14500;7200;224;4;98;100;8400;;4152;4153;1;12997;27.24;27.84;31,9;BCS1388054;1;10
009746;03.03.2021;08:17:29;Normalcharge  ;04.12.2018;FEY;;LION;49;14500;7200;192;4;85;88;8400;3000;4014;4015;1;12999;23.04;23.34;23,5;BCS1388054;4;11
009746;03.03.2021;10:32:46;Stop          ;04.12.2018;FEY;;LION;49;14500;7200;224;4;98;100;8400;;4157;4159;1;12994;27.94;28.04;32,0;BCS1388054;4;11
009746;04.04.2021;11:50:10;Normalcharge  ;04.12.2018;FEY;;LION;49;14500;7200;224;4;96;99;8400;;4133;4134;1;13009;24.84;26.74;27,8;BCS1388054;5;2
009746;04.04.2021;11:51:30;Stop          ;04.12.2018;FEY;;LION;49;14500;7200;224;4;96;99;8400;;4134;4135;1;12693;24.84;27.54;28,5;BCS1388054;5;2
009746;22.08.2021;11:37:25;Normalcharge  ;04.12.2018;FEY;;LION;49;14500;7200;192;4;91;93;8400;3000;4063;4064;1;12996;21.14;27.84;31,9;BCS1388054;4;14
009746;22.08.2021;11:38:13;Stop          ;04.12.2018;FEY;;LION;49;14500;7200;128;4;91;93;8400;3000;4118;4096;1;12628;21.34;29.94;32,1;BCS1388054;4;14
009746;14.10.2021;12:40:18;Normalcharge  ;04.12.2018;FEY;;LION;49;14500;7200;192;5;69;71;8400;3000;3841;3842;1;12999;23.24;25.74;28,1;BCS1388054;6;12
009746;14.10.2021;12:41:59;Stop          ;04.12.2018;FEY;;LION;49;14500;7200;128;5;69;71;8400;3000;3937;3891;1;12625;23.44;28.04;28,5;BCS1388054;6;12
009746;07.02.2022;08:51:46;Normalcharge  ;04.12.2018;FEY;;LION;49;14500;7200;192;5;69;71;8400;3000;3814;3815;1;13016;22.34;23.24;25,6;BCS1388054;2;9
009746;07.02.2022;13:15:56;Stop          ;04.12.2018;FEY;;LION;49;14500;7200;224;5;98;100;8400;;4155;4156;1;13011;25.94;27.14;31,1;BCS1388054;2;9
009746;14.03.2022;12:14:44;Normalcharge  ;04.12.2018;FEY;;LION;49;14500;7200;224;5;96;99;8400;;4130;4131;1;12993;24.24;25.24;27,7;BCS1388054;1;5
009746;14.03.2022;12:15:19;Stop          ;04.12.2018;FEY;;LION;49;14500;7200;224;5;96;99;8400;;4130;4131;1;12992;24.34;25.34;27,9;BCS1388054;1;5
009746;14.03.2022;12:15:29;Normalcharge  ;04.12.2018;FEY;;LION;49;14500;7200;224;5;96;99;8400;;4130;4131;1;12992;24.34;25.34;28,1;BCS1388054;1;5
009746;14.03.2022;12:16:01;Stop          ;04.12.2018;FEY;;LION;49;14500;7200;224;5;96;99;8400;;4131;4131;1;12992;24.34;25.44;28,4;BCS1388054;1;5
009746;14.03.2022;12:17:43;Normalcharge  ;04.12.2018;FEY;;LION;49;14500;7200;224;5;96;99;8400;;4130;4131;1;12992;24.34;25.64;29,2;BCS1388054;1;5
009746;14.03.2022;12:18:20;Stop          ;04.12.2018;FEY;;LION;49;14500;7200;224;5;96;99;8400;;4131;4131;1;12992;24.34;25.64;29,3;BCS1388054;1;5
009746;14.03.2022;12:19:16;Normalcharge  ;04.12.2018;FEY;;LION;49;14500;7200;224;5;96;99;8400;;4131;4131;1;12992;24.34;25.64;29,5;BCS1388054;1;5
009746;14.03.2022;12:19:20;Stop          ;04.12.2018;FEY;;LION;49;14500;7200;224;5;96;99;8400;;4131;4131;1;12992;24.34;25.74;29,6;BCS1388054;1;5
009746;29.03.2022;08:20:58;Normalcharge  ;04.12.2018;FEY;;LION;49;14500;7200;192;5;86;89;8400;3000;4019;4020;1;13010;24.64;24.64;25,7;BCS1388054;4;8
009746;29.03.2022;08:21:36;Stop          ;04.12.2018;FEY;;LION;49;14500;7200;128;5;86;89;8400;3000;4058;4039;1;12717;24.64;25.94;26,0;BCS1388054;4;8
009746;29.03.2022;08:22:11;Normalcharge  ;04.12.2018;FEY;;LION;49;14500;7200;128;5;86;89;8400;3000;4021;4023;1;13008;24.64;25.64;26,3;BCS1388054;4;8
009746;29.03.2022;08:22:29;Stop          ;04.12.2018;FEY;;LION;49;14500;7200;128;5;86;89;8400;3000;4024;4024;1;12896;24.64;26.04;26,4;BCS1388054;4;8

File: 009749.txt
Serialnumber ; Date ; Time ; Action ; Date of Manufacture ; Manufacturer ; Battery Name ; Device-Chemistry ; Specification-Info ; Design-Capacity [mAh] ; Design-Voltage [mV] ; Battery Status ; Cycle Count ; SOC [%] ; Relativ SOC[%] ; Desired Voltage [mV]; Desired Current [mA]; Cell Voltage 1 [mV] ; Cell Voltage 2 [mV] ; Max_Error [%] ; Busvoltage[mV] ; Battery Temperature [°C] ; Charger Temperature [°C] ; Batterysystem ; Case ; PLace
009749;07.02.2021;08:47:00;Normalcharge  ;04.12.2018;FEY;;LION;49;14500;7200;192;5;90;93;8400;3000;4063;4062;1;13004;23.54;26.44;29,2;BCS1388054;4;7
009749;07.02.2021;11:52:20;Stop          ;04.12.2018;FEY;;LION;49;14500;7200;224;5;98;100;8400;;4150;4147;1;13004;26.14;27.74;29,7;BCS1388054;4;7
009749;03.03.2021;08:17:17;Normalcharge  ;04.12.2018;FEY;;LION;49;14500;7200;192;5;91;94;8400;3000;4082;4080;1;13009;23.24;23.74;23,5;BCS1388054;2;17
009749;04.03.2021;07:53:46;Stop          ;04.12.2018;FEY;;LION;49;14500;7200;224;5;97;100;8400;;4145;4142;1;13001;26.34;28.24;31,6;BCS1388054;2;17
009749;04.04.2021;11:49:55;Normalcharge  ;04.12.2018;FEY;;LION;49;14500;7200;192;5;53;55;8400;3000;3693;3690;1;13028;24.84;24.84;27,5;BCS1388054;7;6
009749;04.04.2021;11:51:17;Stop          ;04.12.2018;FEY;;LION;49;14500;7200;128;5;53;55;8400;3000;3784;3731;1;12751;24.94;27.14;28,4;BCS1388054;7;6
009749;05.04.2021;09:38:00;Ladung auf 60% ;04.12.2018;FEY;;LION;49;14500;7200;192;5;53;55;8400;3000;3695;3692;1;12996;25.04;25.34;26,3;BCS1388054;3;6
009749;05.04.2021;10:06:07;Stop           ;04.12.2018;FEY;;LION;49;14500;7200;192;5;57;60;8400;3000;3756;3751;1;12994;27.04;27.54;31,4;BCS1388054;3;6
009749;22.08.2021;11:08:13;Normalcharge  ;04.12.2018;FEY;;LION;49;14500;7200;192;5;54;56;8400;3000;3701;3698;1;12999;29.94;30.34;32,2;BCS1388054;6;9
009749;22.08.2021;11:08:46;Stop          ;04.12.2018;FEY;;LION;49;14500;7200;128;5;54;56;8400;3000;3731;3711;1;12800;29.94;31.54;32,5;BCS1388054;6;9

File: 009750.txt
Serialnumber ; Date ; Time ; Action ; Date of Manufacture ; Manufacturer ; Battery Name ; Device-Chemistry ; Specification-Info ; Design-Capacity [mAh] ; Design-Voltage [mV] ; Battery Status ; Cycle Count ; SOC [%] ; Relativ SOC[%] ; Desired Voltage [mV]; Desired Current [mA]; Cell Voltage 1 [mV] ; Cell Voltage 2 [mV] ; Max_Error [%] ; Busvoltage[mV] ; Battery Temperature [°C] ; Charger Temperature [°C] ; Batterysystem ; Case ; PLace
009750;07.12.2020;04:14:40;Cycle         ;04.12.2018;FEY;;LION;49;14500;7200;192;2;95;97;8400;;4125;4129;1;13020;25.64;27.54;30,3;BCS1388054;7;3
009750;08.12.2020;16:20:20;Stop          ;04.12.2018;FEY;;LION;49;14500;7200;192;2;95;98;8400;;4124;4127;1;13021;27.64;28.94;31,9;BCS1388054;7;3
009750;07.02.2021;08:47:07;Normalcharge  ;04.12.2018;FEY;;LION;49;14500;7200;192;3;72;74;8400;3000;3887;3889;1;12998;23.64;26.44;29,2;BCS1388054;5;7
009750;07.02.2021;11:50:11;Stop          ;04.12.2018;FEY;;LION;49;14500;7200;224;3;98;100;8400;;4163;4168;1;12997;26.24;28.44;30,0;BCS1388054;5;7
009750;03.03.2021;08:17:35;Normalcharge  ;04.12.2018;FEY;;LION;49;14500;7200;192;3;74;77;8400;3000;3912;3914;1;13015;23.14;23.44;23,6;BCS1388054;5;9
009750;03.03.2021;11:26:36;Stop          ;04.12.2018;FEY;;LION;49;14500;7200;224;3;97;100;8400;;4158;4161;1;13010;28.94;29.44;31,5;BCS1388054;5;9
009750;06.04.2021;08:38:50;Normalcharge  ;04.12.2018;FEY;;LION;49;14500;7200;224;3;96;99;8400;;4134;4136;1;13006;20.64;24.14;28,1;BCS1388054;3;16
009750;06.04.2021;08:39:42;Stop           ;04.12.2018;FEY;;LION;49;14500;7200;224;3;96;99;8400;;4134;4136;1;13005;20.74;24.34;28,2;BCS1388054;3;16
009750;08.04.2021;07:58:01;Normalcharge  ;04.12.2018;FEY;;LION;49;14500;7200;224;3;96;99;8400;;4134;4136;1;13006;25.24;24.44;26,4;BCS1388054;3;16
009750;08.04.2021;07:59:40;Stop           ;04.12.2018;FEY;;LION;49;14500;7200;224;3;96;99;8400;;4134;4136;1;13004;25.24;25.14;26,8;BCS1388054;3;16
009750;08.04.2021;10:35:05;Normalcharge  ;04.12.2018;FEY;;LION;49;14500;7200;224;3;96;99;8400;;4133;4136;1;13007;25.54;24.74;28,1;BCS1388054;3;16
009750;08.04.2021;10:36:56;Stop           ;04.12.2018;FEY;;LION;49;14500;7200;224;3;96;99;8400;;4134;4136;1;13003;25.54;25.54;29,0;BCS1388054;3;16
009750;18.04.2021;08:33:50;Normalcharge  ;04.12.2018;FEY;;LION;49;14500;7200;224;3;96;99;8400;;4129;4132;1;13008;26.14;25.84;27,8;BCS1388054;3;16
009750;18.04.2021;08:33:58;Stop           ;04.12.2018;FEY;;LION;49;14500;7200;224;3;96;99;8400;;4129;4132;1;13008;26.14;25.94;27,9;BCS1388054;3;16
009750;04.08.2021;07:24:50;Normalcharge  ;04.12.2018;FEY;;LION;49;14500;7200;192;3;93;96;8400;;4096;4098;1;12998;30.44;30.04;31,6;BCS1388054;3;16
009750;04.08.2021;07:25:37;Stop           ;04.12.2018;FEY;;LION;49;14500;7200;192;3;93;96;8400;;4096;4098;1;12998;30.44;30.34;31,7;BCS1388054;3;16
009750;22.08.2021;11:08:08;Normalcharge  ;04.12.2018;FEY;;LION;49;14500;7200;2768;4;;;8400;3000;3112;3111;1;12997;22.84;28.54;32,1;BCS1388054;5;10
009750;22.08.2021;11:08:41;Stop          ;04.12.2018;FEY;;LION;49;14500;7200;144;4;;;8400;3000;3115;3115;1;12853;22.94;29.34;32,5;BCS1388054;5;10

File: 009751.txt
Serialnumber ; Date ; Time ; Action ; Date of Manufacture ; Manufacturer ; Battery Name ; Device-Chemistry ; Specification-Info ; Design-Capacity [mAh] ; Design-Voltage [mV] ; Battery Status ; Cycle Count ; SOC [%] ; Relativ SOC[%] ; Desired Voltage [mV]; Desired Current [mA]; Cell Voltage 1 [mV] ; Cell Voltage 2 [mV] ; Max_Error [%] ; Busvoltage[mV] ; Battery Temperature [°C] ; Charger Temperature [°C] ; Batterysystem ; Case ; PLace
009751;07.12.2020;04:14:36;Cycle         ;04.12.2018;FEY;;LION;49;14500;7200;192;2;96;98;8400;;4145;4145;1;13007;25.74;28.54;30,3;BCS1388054;6;3
009751;08.12.2020;16:20:13;Stop          ;04.12.2018;FEY;;LION;49;14500;7200;192;2;96;98;8400;;4142;4142;1;13007;27.84;30.04;31,9;BCS1388054;6;3
009751;07.02.2021;08:47:07;Normalcharge  ;04.12.2018;FEY;;LION;49;14500;7200;192;3;74;75;8400;3000;3901;3901;1;13002;23.54;24.14;29,2;BCS1388054;5;6
009751;07.02.2021;11:50:11;Stop          ;04.12.2018;FEY;;LION;49;14500;7200;224;3;99;100;8400;;4157;4156;1;13002;25.64;25.34;30,0;BCS1388054;5;6
009751;03.03.2021;08:17:21;Normalcharge  ;04.12.2018;FEY;;LION;49;14500;7200;192;3;89;91;8400;3000;4066;4065;1;13009;23.24;22.94;23,5;BCS1388054;3;18
009751;04.03.2021;07:53:40;Stop           ;04.12.2018;FEY;;LION;49;14500;7200;224;3;99;100;8400;;4147;4146;1;13002;26.44;27.34;31,5;BCS1388054;3;18
009751;04.04.2021;11:50:33;Normalcharge  ;04.12.2018;FEY;;LION;49;14500;7200;192;3;55;57;8400;3000;3721;3721;1;13012;25.04;26.44;27,9;BCS1388054;2;9
009751;04.04.2021;11:51:48;Stop          ;04.12.2018;FEY;;LION;49;14500;7200;128;3;55;57;8400;3000;3813;3765;1;12620;25.04;29.04;28,6;BCS1388054;2;9
009751;05.04.2021;09:37:37;Charge to 60% ;04.12.2018;FEY;;LION;49;14500;7200;192;3;55;58;8400;3000;3725;3724;1;13003;25.14;25.14;26,0;BCS1388054;1;10
009751;05.04.2021;10:01:53;Stop          ;04.12.2018;FEY;;LION;49;14500;7200;192;3;57;60;8400;3000;3763;3761;1;12998;26.34;27.54;31,2;BCS1388054;1;10
009751;22.08.2021;11:08:18;Normalcharge  ;04.12.2018;FEY;;LION;49;14500;7200;192;3;53;55;8400;3000;3702;3702;1;13016;29.74;31.04;32,2;BCS1388054;7;12
009751;22.08.2021;11:08:51;Stop          ;04.12.2018;FEY;;LION;49;14500;7200;128;3;53;55;8400;3000;3733;3714;1;12854;29.74;31.84;32,6;BCS1388054;7;12
009751;25.08.2021;08:15:19;Charge to 60% ;04.12.2018;FEY;;LION;49;14500;7200;192;3;53;55;8400;3000;3702;3702;1;12977;30.34;32.64;33,5;BCS1388054;2;7
009751;25.08.2021;10:43:16;Stop          ;04.12.2018;FEY;;LION;49;14500;7200;192;3;57;60;8400;3000;3755;3754;1;12977;32.84;35.24;36,4;BCS1388054;2;7
009751;01.11.2021;09:52:00;Normalcharge  ;04.12.2018;FEY;;LION;49;14500;7200;192;3;55;57;8400;3000;3720;3720;1;13005;25.84;26.24;26,3;BCS1388054;5;3
009751;01.11.2021;09:53:40;Stop          ;04.12.2018;FEY;;LION;49;14500;7200;128;3;55;57;8400;3000;3816;3766;1;12600;25.84;30.44;27,3;BCS1388054;5;3
009751;01.11.2021;10:02:19;Normalcharge  ;04.12.2018;FEY;;LION;49;14500;7200;192;3;55;58;8400;3000;3725;3725;1;13001;26.04;28.74;29,5;BCS1388054;5;3
009751;01.11.2021;10:03:11;Stop          ;04.12.2018;FEY;;LION;49;14500;7200;128;3;55;58;8400;3000;3814;3766;1;12595;26.04;30.64;29,3;BCS1388054;5;3
009751;01.11.2021;10:27:35;Normalcharge  ;04.12.2018;FEY;;LION;49;14500;7200;192;3;55;58;8400;3000;3727;3726;1;13002;26.24;27.04;27,8;BCS1388054;5;3
009751;01.11.2021;10:29:14;Stop          ;04.12.2018;FEY;;LION;49;14500;7200;128;3;55;58;8400;3000;3822;3774;1;12593;26.34;31.04;28,6;BCS1388054;5;3
009751;01.11.2021;10:32:33;Charge to 60% ;04.12.2018;FEY;;LION;49;14500;7200;192;3;56;58;8400;3000;3732;3732;1;13000;26.44;28.84;29,9;BCS1388054;5;3
009751;01.11.2021;11:11:47;Stop          ;04.12.2018;FEY;;LION;49;14500;7200;192;3;57;60;8400;3000;3756;3755;1;13001;27.64;30.44;32,5;BCS1388054;5;3
009751;07.02.2022;08:50:57;Normalcharge  ;04.12.2018;FEY;;LION;49;14500;7200;192;3;55;57;8400;3000;3713;3713;1;13007;22.24;22.34;25,1;BCS1388054;4;6
009751;07.02.2022;13:19:09;Stop          ;04.12.2018;FEY;;LION;49;14500;7200;224;3;96;100;8400;;4161;4159;1;13002;26.74;26.44;29,7;BCS1388054;4;6
009751;14.03.2022;10:34:44;Normalcharge  ;04.12.2018;FEY;;LION;49;14500;7200;224;3;95;99;8400;;4129;4128;1;12992;24.44;25.44;26,0;BCS1388054;1;1
009751;14.03.2022;10:38:55;Stop          ;04.12.2018;FEY;;LION;49;14500;7200;224;3;95;99;8400;;4129;4128;1;12963;24.44;26.34;28,2;BCS1388054;1;1