Folder: Battery_sort_V2/reader/Batterieverzeichnis_new (part 2)

File: 009517.txt
Serialnumber ; Date ; Time ; Action ; Date of Manufacture ; Manufacturer ; Battery Name ; Device-Chemistry ; Specification-Info ; Design-Capacity [mAh] ; Design-Voltage [mV] ; Battery Status ; Cycle Count ; SOC [%] ; Relativ SOC[%] ; Desired Voltage [mV]; Desired Current [mA]; Cell Voltage 1 [mV] ; Cell Voltage 2 [mV] ; Max_Error [%] ; Busvoltage[mV] ; Battery Temperature [°C] ; Charger Temperature [°C] ; Batterysystem ; Case ; PLace
009517;30.11.2020;09:42:55;Stop          ;04.12.2018;FEY;;LION;49;14500;7200;192;3;97;98;8400;;4140;4140;1;13022;27.54;27.54;31,7;BCS1388054;7;6
009517;12.01.2021;04:17:36;Charge to 90% ;04.12.2018;FEY;;LION;49;14500;7200;192;3;96;96;8400;;4123;4123;1;13016;23.14;24.64;23,6;BCS1388054;5;15
009517;12.01.2021;05:15:37;Stop          ;04.12.2018;FEY;;LION;49;14500;7200;192;3;90;90;8400;3000;4064;4064;1;13011;26.84;29.94;31,6;BCS1388054;5;15
009517;12.01.2021;05:21:53;Cycle         ;04.12.2018;FEY;;LION;49;14500;7200;192;3;90;90;8400;3000;4065;4065;1;13012;26.94;29.54;30,6;BCS1388054;5;15
009517;13.01.2021;08:31:10;Stop          ;04.12.2018;FEY;;LION;49;14500;7200;224;4;96;100;8400;;4155;4154;1;13011;27.14;29.54;31,1;BCS1388054;5;15
009517;22.02.2021;17:31:46;Normalcharge  ;04.12.2018;FEY;;LION;49;14500;7200;192;5;50;52;8400;3000;3672;3671;1;12994;26.04;27.74;31,6;BCS1388054;1;8
009517;22.02.2021;23:06:28;Stop          ;04.12.2018;FEY;;LION;49;14500;7200;224;5;98;100;8400;;4155;4155;1;12996;26.94;28.64;30,6;BCS1388054;1;8
009517;04.04.2021;11:50:39;Normalcharge  ;04.12.2018;FEY;;LION;49;14500;7200;192;5;53;54;8400;3000;3691;3691;1;13002;24.94;26.14;28,1;BCS1388054;1;17
009517;04.04.2021;11:51:54;Stop          ;04.12.2018;FEY;;LION;49;14500;7200;128;5;53;54;8400;3000;3779;3732;1;12554;25.04;29.14;28,8;BCS1388054;1;17
009517;05.04.2021;09:37:46;Charge to 60% ;04.12.2018;FEY;;LION;49;14500;7200;192;5;53;55;8400;3000;3693;3693;1;13015;25.14;26.04;26,1;BCS1388054;2;9
009517;05.04.2021;10:03:48;Stop          ;04.12.2018;FEY;;LION;49;14500;7200;192;5;58;60;8400;3000;3763;3765;1;13011;27.14;30.04;31,4;BCS1388054;2;9
009517;22.08.2021;11:07:56;Normalcharge  ;04.12.2018;FEY;;LION;49;14500;7200;192;5;45;46;8400;3000;3623;3623;1;12992;22.34;30.44;32,0;BCS1388054;2;17
009517;22.08.2021;11:08:29;Stop          ;04.12.2018;FEY;;LION;49;14500;7200;128;5;45;46;8400;3000;3666;3642;1;12614;22.44;31.64;32,4;BCS1388054;2;17
009517;25.08.2021;08:14:57;Charge to 60% ;04.12.2018;FEY;;LION;49;14500;7200;192;5;44;46;8400;3000;3625;3625;1;12987;30.24;32.44;33,2;BCS1388054;6;8
009517;25.08.2021;09:50:39;Stop          ;04.12.2018;FEY;;LION;49;14500;7200;192;5;58;60;8400;3000;3738;3739;1;12986;34.34;35.64;36,4;BCS1388054;6;8
009517;01.11.2021;09:52:11;Normalcharge  ;04.12.2018;FEY;;LION;49;14500;7200;192;5;52;54;8400;3000;3687;3686;1;13009;24.34;24.34;26,4;BCS1388054;3;17
009517;01.11.2021;09:53:27;Stop           ;04.12.2018;FEY;;LION;49;14500;7200;128;5;53;54;8400;3000;3777;3728;1;12590;24.44;27.64;27,1;BCS1388054;3;17
009517;01.11.2021;10:02:09;Normalcharge  ;04.12.2018;FEY;;LION;49;14500;7200;192;5;53;54;8400;3000;3689;3689;1;13004;24.74;26.44;29,5;BCS1388054;3;17
009517;01.11.2021;10:03:20;Stop           ;04.12.2018;FEY;;LION;49;14500;7200;128;5;53;54;8400;3000;3778;3730;1;12593;24.84;29.24;29,5;BCS1388054;3;17
009517;01.11.2021;10:18:16;Normalcharge  ;04.12.2018;FEY;;LION;49;14500;7200;192;5;53;54;8400;3000;3691;3691;1;13006;25.24;25.94;28,2;BCS1388054;3;17
009517;01.11.2021;10:18:56;Stop           ;04.12.2018;FEY;;LION;49;14500;7200;128;5;53;54;8400;3000;3770;3725;1;12596;25.34;27.64;28,2;BCS1388054;3;17
009517;01.11.2021;10:27:50;Normalcharge  ;04.12.2018;FEY;;LION;49;14500;7200;192;5;53;54;8400;3000;3692;3691;1;13006;25.54;26.14;27,8;BCS1388054;3;17
009517;01.11.2021;10:29:05;Stop           ;04.12.2018;FEY;;LION;49;14500;7200;128;5;53;55;8400;3000;3781;3734;1;12558;25.64;29.34;28,5;BCS1388054;3;17
009517;01.11.2021;10:32:24;Ladung auf 60% ;04.12.2018;FEY;;LION;49;14500;7200;192;5;53;55;8400;3000;3695;3694;1;13010;25.74;27.14;29,7;BCS1388054;3;17
009517;01.11.2021;15:19:46;Stop           ;04.12.2018;FEY;;LION;49;14500;7200;192;5;58;60;8400;3000;3749;3749;1;13010;28.74;29.64;32,7;BCS1388054;3;17
009517;09.02.2022;08:16:56;Normalcharge  ;04.12.2018;FEY;;LION;49;14500;7200;192;5;56;57;8400;3000;3712;3711;1;13012;22.44;23.54;23,1;BCS1388054;2;3
009517;09.02.2022;12:43:52;Stop          ;04.12.2018;FEY;;LION;49;14500;7200;224;5;98;100;8400;;4160;4160;1;13006;26.24;28.14;29,9;BCS1388054;2;3

File: 009528.txt
Serialnumber ; Date ; Time ; Action ; Date of Manufacture ; Manufacturer ; Battery Name ; Device-Chemistry ; Specification-Info ; Design-Capacity [mAh] ; Design-Voltage [mV] ; Battery Status ; Cycle Count ; SOC [%] ; Relativ SOC[%] ; Desired Voltage [mV]; Desired Current [mA]; Cell Voltage 1 [mV] ; Cell Voltage 2 [mV] ; Max_Error [%] ; Busvoltage[mV] ; Battery Temperature [°C] ; Charger Temperature [°C] ; Batterysystem ; Case ; PLace
009528;10.12.2019;15:28:33;Charge to 30% ;04.12.2018;FEY;;LION;49;14500;7200;192;50;91;98;8400;;4107;4105;1;12998;23.34;24.84;27,1;BCS1388054;1;11
009528;10.12.2019;20:42:17;Stop          ;04.12.2018;FEY;;LION;49;14500;7200;192;51;29;30;8400;3000;3561;3561;1;12994;31.74;31.04;34,1;BCS1388054;1;11
009528;11.12.2019;08:48:18;Fastcharge    ;04.12.2018;FEY;;LION;49;14500;7200;192;51;29;30;8400;3000;3570;3569;1;12998;25.94;26.64;31,9;BCS1388054;1;11
009528;11.12.2019;13:40:21;Stop          ;04.12.2018;FEY;;LION;49;14500;7200;224;51;95;100;8400;;4162;4161;1;12995;28.54;28.14;32,4;BCS1388054;1;11
009528;11.12.2019;15:45:57;Charge to 30% ;04.12.2018;FEY;;LION;49;14500;7200;224;51;96;99;8400;;4151;4151;1;12996;26.54;26.74;31,5;BCS1388054;1;11
009528;11.12.2019;15:46:00;Stop          ;04.12.2018;FEY;;LION;49;14500;7200;224;51;96;99;8400;;4151;4151;1;12996;26.54;26.74;31,5;BCS1388054;1;11
009528;11.12.2019;15:46:13;Charge to 10% ;04.12.2018;FEY;;LION;49;14500;7200;224;51;96;99;8400;;4151;4151;1;12996;26.54;26.64;31,5;BCS1388054;1;11
009528;11.12.2019;22:50:20;Stop          ;04.12.2018;FEY;;LION;49;14500;7200;192;52;10;10;8400;3000;3351;3352;1;12995;32.24;30.54;33,4;BCS1388054;1;11
009528;12.12.2019;08:44:40;Normalcharge  ;04.12.2018;FEY;;LION;49;14500;7200;192;52;9;10;8400;3000;3362;3363;1;12997;26.14;26.74;31,9;BCS1388054;1;11
009528;12.12.2019;16:39:22;Stop          ;04.12.2018;FEY;;LION;49;14500;7200;224;52;96;100;8400;;4160;4160;1;12995;28.04;27.74;31,7;BCS1388054;1;11
009528;13.12.2019;10:47:47;Charge to 10% ;04.12.2018;FEY;;LION;49;14500;7200;224;52;96;100;8400;;4146;4146;1;12996;26.14;26.94;32,0;BCS1388054;1;11
009528;13.12.2019;15:41:58;Stop          ;04.12.2018;FEY;;LION;49;14500;7200;192;53;35;36;8400;3000;3499;3551;1;13634;31.24;34.14;34,6;BCS1388054;1;11
009528;13.12.2019;15:42:01;Cycle         ;04.12.2018;FEY;;LION;49;14500;7200;192;53;35;36;8400;3000;3499;3551;1;12994;31.24;34.24;34,6;BCS1388054;1;11
009528;14.12.2019;22:41:25;Stop          ;04.12.2018;FEY;;LION;49;14500;7200;224;54;93;99;8400;;4150;4150;1;12997;26.14;26.74;31,9;BCS1388054;1;11
009528;16.12.2019;07:43:03;Charge to 10% ;04.12.2018;FEY;;LION;49;14500;7200;224;54;94;100;8400;;4144;4144;1;12997;25.84;26.04;31,9;BCS1388054;1;11
009528;16.12.2019;14:36:13;Stop          ;04.12.2018;FEY;;LION;49;14500;7200;192;55;10;10;8400;3000;3365;3365;1;12995;30.94;29.54;32,4;BCS1388054;1;11
009528;16.12.2019;14:44:00;Charge to 90% ;04.12.2018;FEY;;LION;49;14500;7200;192;55;10;10;8400;3000;3367;3368;1;12995;30.34;28.74;31,7;BCS1388054;1;11
009528;16.12.2019;20:50:03;Stop          ;04.12.2018;FEY;;LION;49;14500;7200;192;55;85;90;8400;3000;4057;4057;1;12996;30.04;28.74;31,7;BCS1388054;1;11
009528;17.12.2019;08:37:36;Fastcharge    ;04.12.2018;FEY;;LION;49;14500;7200;192;55;85;90;8400;3000;4046;4047;1;12997;25.94;26.64;31,6;BCS1388054;1;11
009528;17.12.2019;10:31:11;Stop          ;04.12.2018;FEY;;LION;49;14500;7200;224;55;95;100;8400;;4158;4158;1;12997;27.14;27.04;31,4;BCS1388054;1;11
009528;17.12.2019;13:38:19;Charge to 10% ;04.12.2018;FEY;;LION;49;14500;7200;224;55;95;100;8400;;4147;4147;1;12996;26.14;26.44;30,8;BCS1388054;1;11
009528;17.12.2019;20:33:50;Stop          ;04.12.2018;FEY;;LION;49;14500;7200;192;56;10;10;8400;3000;3363;3364;1;12994;32.24;30.74;34,2;BCS1388054;1;11
009528;18.12.2019;08:31:14;Fastcharge    ;04.12.2018;FEY;;LION;49;14500;7200;192;56;10;10;8400;3000;3373;3374;1;12996;26.04;26.54;31,6;BCS1388054;1;11
009528;18.12.2019;14:28:33;Stop          ;04.12.2018;FEY;;LION;49;14500;7200;224;56;95;100;8400;;4160;4160;1;12996;28.54;28.04;31,9;BCS1388054;1;11
009528;19.12.2019;08:23:45;Charge to 60% ;04.12.2018;FEY;;LION;49;14500;7200;224;56;96;100;8400;;4146;4146;1;12997;25.94;26.64;31,5;BCS1388054;1;11
009528;19.12.2019;11:29:32;Stop          ;04.12.2018;FEY;;LION;49;14500;7200;192;57;58;60;8400;3000;3765;3767;1;12995;32.34;31.34;34,9;BCS1388054;1;11
009528;19.12.2019;12:16:33;Cycle         ;04.12.2018;FEY;;LION;49;14500;7200;192;57;58;60;8400;3000;3778;3780;1;12996;28.94;28.24;32,7;BCS1388054;1;11
009528;20.12.2019;17:26:19;Stop          ;04.12.2018;FEY;;LION;49;14500;7200;224;58;94;100;8400;;4150;4149;1;12996;26.04;26.24;31,2;BCS1388054;1;11
009528;06.01.2020;06:34:38;Charge to 60% ;04.12.2018;FEY;;LION;49;14500;7200;192;58;92;98;8400;;4121;4120;1;12998;26.04;26.64;31,9;BCS1388054;1;11
009528;06.01.2020;09:30:30;Stop          ;04.12.2018;FEY;;LION;49;14500;7200;192;58;57;60;8400;3000;3772;3773;1;12997;31.54;30.24;33,9;BCS1388054;1;11
009528;06.01.2020;09:50:27;Fastcharge    ;04.12.2018;FEY;;LION;49;14500;7200;192;58;57;60;8400;3000;3781;3782;1;12996;29.94;28.84;32,6;BCS1388054;1;11
009528;06.01.2020;13:07:36;Stop          ;04.12.2018;FEY;;LION;49;14500;7200;224;58;95;100;8400;;4161;4161;1;12997;28.14;27.64;31,7;BCS1388054;1;11

File: 009537.txt
Serialnumber ; Date ; Time ; Action ; Date of Manufacture ; Manufacturer ; Battery Name ; Device-Chemistry ; Specification-Info ; Design-Capacity [mAh] ; Design-Voltage [mV] ; Battery Status ; Cycle Count ; SOC [%] ; Relativ SOC[%] ; Desired Voltage [mV]; Desired Current [mA]; Cell Voltage 1 [mV] ; Cell Voltage 2 [mV] ; Max_Error [%] ; Busvoltage[mV] ; Battery Temperature [°C] ; Charger Temperature [°C] ; Batterysystem ; Case ; PLace
009537;07.12.2020;04:14:17;Cycle         ;03.12.2018;FEY;;LION;49;14500;7200;16576;3;97;100;;;4155;4154;1;12993;25.14;27.14;30,3;BCS1388054;1;4
009537;08.12.2020;16:19:38;Stop          ;03.12.2018;FEY;;LION;49;14500;7200;16576;3;97;100;;;4152;4152;1;12994;26.94;28.44;31,9;BCS1388054;1;4
009537;12.01.2021;04:17:36;Charge to 90% ;03.12.2018;FEY;;LION;49;14500;7200;16576;3;97;100;;;4135;4135;1;13015;22.64;23.74;23,6;BCS1388054;5;9
009537;12.01.2021;05:15:37;Stop          ;03.12.2018;FEY;;LION;49;14500;7200;192;3;85;90;8400;3000;4033;4032;1;13009;27.04;28.64;31,6;BCS1388054;5;9
009537;12.01.2021;05:21:53;Cycle         ;03.12.2018;FEY;;LION;49;14500;7200;192;3;85;90;8400;3000;4035;4034;1;13011;26.94;28.14;30,6;BCS1388054;5;9
009537;13.01.2021;08:31:10;Stop          ;03.12.2018;FEY;;LION;49;14500;7200;224;5;97;100;8400;;4155;4155;1;13011;26.84;28.14;31,1;BCS1388054;5;9
009537;21.02.2021;13:44:56;Normalcharge  ;03.12.2018;FEY;;LION;49;14500;7200;192;5;55;57;8400;3000;3720;3720;1;13005;22.44;22.94;27,7;BCS1388054;5;14
009537;21.02.2021;19:31:36;Stop          ;03.12.2018;FEY;;LION;49;14500;7200;224;5;96;100;8400;;4154;4152;1;12999;26.74;28.54;30,6;BCS1388054;5;14
009537;06.04.2021;08:39:03;Normalcharge  ;03.12.2018;FEY;;LION;49;14500;7200;224;5;94;99;8400;;4127;4126;1;13008;20.84;24.34;28,1;BCS1388054;4;9
009537;06.04.2021;08:39:53;Stop          ;03.12.2018;FEY;;LION;49;14500;7200;224;5;94;99;8400;;4127;4126;1;13006;20.94;24.44;28,4;BCS1388054;4;9
009537;08.04.2021;07:58:12;Normalcharge  ;03.12.2018;FEY;;LION;49;14500;7200;224;5;94;99;8400;;4127;4126;1;13008;24.74;23.64;26,3;BCS1388054;4;9
009537;08.04.2021;07:59:34;Stop          ;03.12.2018;FEY;;LION;49;14500;7200;224;5;94;99;8400;;4127;4126;1;12988;24.74;25.14;26,7;BCS1388054;4;9
009537;08.04.2021;10:36:07;Normalcharge  ;03.12.2018;FEY;;LION;49;14500;7200;224;5;94;99;8400;;4127;4125;1;13007;24.94;25.24;28,5;BCS1388054;4;9
009537;08.04.2021;10:37:03;Stop          ;03.12.2018;FEY;;LION;49;14500;7200;224;5;94;99;8400;;4127;4126;1;12984;24.94;25.64;29,0;BCS1388054;4;9
009537;18.04.2021;08:34:04;Normalcharge  ;03.12.2018;FEY;;LION;49;14500;7200;224;5;94;99;8400;;4124;4122;1;13006;25.64;26.14;27,9;BCS1388054;4;9
009537;18.04.2021;08:34:10;Stop          ;03.12.2018;FEY;;LION;49;14500;7200;224;5;94;99;8400;;4124;4122;1;13006;25.64;26.14;28,1;BCS1388054;4;9
009537;04.08.2021;07:24:46;Normalcharge  ;03.12.2018;FEY;;LION;49;14500;7200;192;5;92;96;8400;;4093;4092;1;13001;29.84;30.04;31,5;BCS1388054;4;9
009537;04.08.2021;07:25:30;Stop          ;03.12.2018;FEY;;LION;49;14500;7200;192;5;92;96;8400;;4093;4092;1;12978;29.84;30.34;31,7;BCS1388054;4;9
009537;22.08.2021;11:08:04;Normalcharge  ;03.12.2018;FEY;;LION;49;14500;7200;192;5;91;94;8400;3000;4083;4082;1;12989;22.24;30.44;32,1;BCS1388054;4;3
009537;22.08.2021;11:08:37;Stop          ;03.12.2018;FEY;;LION;49;14500;7200;128;5;91;94;8400;3000;4122;4106;1;12692;22.24;31.54;32,5;BCS1388054;4;3
009537;12.10.2021;12:15:20;Normalcharge  ;03.12.2018;FEY;;LION;49;14500;7200;192;5;91;94;8400;3000;4071;4070;1;13017;24.14;26.24;27,9;BCS1388054;1;16
009537;12.10.2021;12:15:34;Stop          ;03.12.2018;FEY;;LION;49;14500;7200;192;5;91;94;8400;3000;4071;4070;1;13000;24.14;26.54;27,9;BCS1388054;1;16
009537;14.10.2021;12:40:03;Normalcharge  ;03.12.2018;FEY;;LION;49;14500;7200;192;5;87;90;8400;3000;4044;4043;1;13001;25.14;25.64;27,9;BCS1388054;3;2
009537;14.10.2021;12:41:32;Stop           ;03.12.2018;FEY;;LION;49;14500;7200;128;5;87;91;8400;3000;4120;4086;1;12623;25.24;28.94;28,4;BCS1388054;3;2
009537;01.11.2021;09:52:05;Normalcharge  ;03.12.2018;FEY;;LION;49;14500;7200;192;5;87;90;8400;3000;4039;4038;1;13003;24.14;25.44;26,3;BCS1388054;4;6
009537;01.11.2021;09:53:34;Stop          ;03.12.2018;FEY;;LION;49;14500;7200;128;5;87;91;8400;3000;4118;4084;1;12607;24.24;27.74;27,1;BCS1388054;4;6
009537;01.11.2021;10:02:14;Normalcharge  ;03.12.2018;FEY;;LION;49;14500;7200;192;5;87;91;8400;3000;4042;4041;1;12998;24.64;26.94;29,5;BCS1388054;4;6
009537;01.11.2021;10:03:16;Stop          ;03.12.2018;FEY;;LION;49;14500;7200;128;5;87;91;8400;3000;4113;4082;1;12587;24.74;28.44;29,3;BCS1388054;4;6

File: 009538.txt
Serialnumber ; Date ; Time ; Action ; Date of Manufacture ; Manufacturer ; Battery Name ; Device-Chemistry ; Specification-Info ; Design-Capacity [mAh] ; Design-Voltage [mV] ; Battery Status ; Cycle Count ; SOC [%] ; Relativ SOC[%] ; Desired Voltage [mV]; Desired Current [mA]; Cell Voltage 1 [mV] ; Cell Voltage 2 [mV] ; Max_Error [%] ; Busvoltage[mV] ; Battery Temperature [°C] ; Charger Temperature [°C] ; Batterysystem ; Case ; PLace
009538;10.12.2019;15:29:09;Charge to 30% ;04.12.2018;FEY;;LION;49;14500;7200;224;29;92;99;8400;;4120;4121;1;13011;22.84;23.64;27,1;BCS1388054;6;6
009538;10.12.2019;20:46:41;Stop          ;04.12.2018;FEY;;LION;49;14500;7200;192;30;29;30;8400;3000;3558;3559;1;13009;32.04;29.94;33,6;BCS1388054;6;6
009538;11.12.2019;08:49:03;Fastcharge    ;04.12.2018;FEY;;LION;49;14500;7200;192;30;29;30;8400;3000;3568;3569;1;13010;26.34;26.24;31,9;BCS1388054;6;6
009538;11.12.2019;13:39:30;Stop          ;04.12.2018;FEY;;LION;49;14500;7200;224;30;95;100;8400;;4163;4164;1;13010;28.74;27.54;32,5;BCS1388054;6;6
009538;11.12.2019;15:46:47;Charge to 10% ;04.12.2018;FEY;;LION;49;14500;7200;224;30;97;100;8400;;4154;4155;1;13009;26.94;26.14;31,4;BCS1388054;6;6
009538;11.12.2019;22:52:10;Stop          ;04.12.2018;FEY;;LION;49;14500;7200;192;31;10;10;8400;3000;3352;3353;1;13008;32.54;29.74;33,0;BCS1388054;6;6
009538;12.12.2019;08:45:18;Normalcharge  ;04.12.2018;FEY;;LION;49;14500;7200;192;31;9;10;8400;3000;3363;3364;1;13009;26.54;26.14;31,7;BCS1388054;6;6
009538;12.12.2019;16:41:29;Stop          ;04.12.2018;FEY;;LION;49;14500;7200;224;31;96;100;8400;;4162;4163;1;13009;28.34;27.14;31,5;BCS1388054;6;6
009538;13.12.2019;10:48:09;Charge to 10% ;04.12.2018;FEY;;LION;49;14500;7200;224;31;97;100;8400;;4150;4151;1;13010;26.54;26.44;32,0;BCS1388054;6;6
009538;13.12.2019;13:51:54;Stop          ;04.12.2018;FEY;;LION;49;14500;7200;192;31;58;61;8400;3000;3678;3733;1;13497;33.34;33.64;36,1;BCS1388054;6;6
009538;13.12.2019;13:53:13;Fastcharge    ;04.12.2018;FEY;;LION;49;14500;7200;192;31;58;61;8400;3000;3766;3767;1;13007;33.34;31.94;35,8;BCS1388054;6;6
009538;13.12.2019;13:53:19;Stop          ;04.12.2018;FEY;;LION;49;14500;7200;192;31;58;61;8400;3000;3766;3767;1;12996;33.34;31.84;35,8;BCS1388054;6;6
009538;13.12.2019;13:53:25;Normalcharge  ;04.12.2018;FEY;;LION;49;14500;7200;192;31;58;61;8400;3000;3767;3768;1;13007;33.34;31.84;35,8;BCS1388054;6;6
009538;13.12.2019;20:04:59;Stop          ;04.12.2018;FEY;;LION;49;14500;7200;224;31;97;100;8400;;4154;4155;1;13009;27.64;27.14;32,0;BCS1388054;6;6
009538;16.12.2019;07:43:27;Charge to 10% ;04.12.2018;FEY;;LION;49;14500;7200;224;31;96;100;8400;;4146;4146;1;13011;26.24;25.04;31,7;BCS1388054;6;6
009538;16.12.2019;14:43:10;Stop          ;04.12.2018;FEY;;LION;49;14500;7200;192;32;10;10;8400;3000;3352;3353;1;13010;30.64;27.84;31,7;BCS1388054;6;6
009538;16.12.2019;14:44:21;Charge to 90% ;04.12.2018;FEY;;LION;49;14500;7200;192;32;10;10;8400;3000;3353;3354;1;13010;30.64;27.74;31,9;BCS1388054;6;6
009538;16.12.2019;20:54:26;Stop          ;04.12.2018;FEY;;LION;49;14500;7200;192;32;86;90;8400;3000;4054;4056;1;13010;30.44;28.24;32,1;BCS1388054;6;6
009538;17.12.2019;08:37:57;Fastcharge    ;04.12.2018;FEY;;LION;49;14500;7200;192;32;86;90;8400;3000;4042;4043;1;13011;26.34;26.14;31,6;BCS1388054;6;6
009538;17.12.2019;13:38:40;Charge to 10% ;04.12.2018;FEY;;LION;49;14500;7200;224;32;96;100;8400;;4153;4154;1;13010;26.64;26.14;30,8;BCS1388054;6;6
009538;17.12.2019;20:41:41;Stop          ;04.12.2018;FEY;;LION;49;14500;7200;192;34;10;10;8400;3000;3349;3350;1;13010;32.44;29.44;32,6;BCS1388054;6;6
009538;18.12.2019;08:31:34;Fastcharge    ;04.12.2018;FEY;;LION;49;14500;7200;192;34;9;9;8400;3000;3362;3364;1;13010;26.54;26.04;31,6;BCS1388054;6;6
009538;18.12.2019;14:33:31;Stop          ;04.12.2018;FEY;;LION;49;14500;7200;224;34;95;100;8400;;4163;4165;1;13011;28.74;27.14;31,4;BCS1388054;6;6
009538;19.12.2019;08:24:06;Charge to 60% ;04.12.2018;FEY;;LION;49;14500;7200;224;34;96;100;8400;;4150;4152;1;13010;26.44;26.14;31,5;BCS1388054;6;6
009538;19.12.2019;11:34:24;Stop          ;04.12.2018;FEY;;LION;49;14500;7200;192;34;58;60;8400;3000;3768;3771;1;13010;32.44;29.74;33,5;BCS1388054;6;6
009538;19.12.2019;12:16:53;Cycle         ;04.12.2018;FEY;;LION;49;14500;7200;192;34;58;60;8400;3000;3778;3781;1;13010;29.24;27.54;32,7;BCS1388054;6;6
009538;20.12.2019;17:31:05;Stop          ;04.12.2018;FEY;;LION;49;14500;7200;224;35;94;100;8400;;4153;4154;1;13011;26.54;25.84;30,6;BCS1388054;6;6
009538;06.01.2020;06:34:58;Charge to 60% ;04.12.2018;FEY;;LION;49;14500;7200;224;35;93;99;8400;;4123;4123;1;13011;26.54;26.14;31,9;BCS1388054;6;6
009538;06.01.2020;09:30:42;Stop          ;04.12.2018;FEY;;LION;49;14500;7200;192;36;57;60;8400;3000;3760;3762;1;13011;31.84;29.94;33,7;BCS1388054;6;6
009538;06.01.2020;09:50:46;Fastcharge    ;04.12.2018;FEY;;LION;49;14500;7200;192;36;57;60;8400;3000;3775;3777;1;13011;30.24;28.04;32,7;BCS1388054;6;6
009538;06.01.2020;13:06:22;Stop          ;04.12.2018;FEY;;LION;49;14500;7200;224;36;95;100;8400;;4163;4164;1;13012;28.44;27.14;32,1;BCS1388054;6;6

File: 009540.txt
Serialnumber ; Date ; Time ; Action ; Date of Manufacture ; Manufacturer ; Battery Name ; Device-Chemistry ; Specification-Info ; Design-Capacity [mAh] ; Design-Voltage [mV] ; Battery Status ; Cycle Count ; SOC [%] ; Relativ SOC[%] ; Desired Voltage [mV]; Desired Current [mA]; Cell Voltage 1 [mV] ; Cell Voltage 2 [mV] ; Max_Error [%] ; Busvoltage[mV] ; Battery Temperature [°C] ; Charger Temperature [°C] ; Batterysystem ; Case ; PLace
009540;10.12.2019;15:28:54;Charge to 30% ;04.12.2018;FEY;;LION;49;14500;7200;224;47;93;100;8400;;4130;4131;1;13024;22.74;25.04;27,1;BCS1388054;4;10
009540;10.12.2019;20:47:57;Stop          ;04.12.2018;FEY;;LION;49;14500;7200;192;48;29;30;8400;3000;3560;3561;1;13021;34.14;33.64;33,4;BCS1388054;4;10
009540;11.12.2019;08:48:41;Fastcharge    ;04.12.2018;FEY;;LION;49;14500;7200;192;48;29;30;8400;3000;3568;3569;1;13023;26.64;28.54;31,9;BCS1388054;4;10
009540;11.12.2019;13:42:44;Stop          ;04.12.2018;FEY;;LION;49;14500;7200;224;48;94;100;8400;;4160;4160;1;13022;30.84;30.24;31,9;BCS1388054;4;10
009540;11.12.2019;15:46:31;Charge to 10% ;04.12.2018;FEY;;LION;49;14500;7200;224;48;96;100;8400;;4153;4153;1;13022;27.64;28.64;31,4;BCS1388054;4;10
009540;11.12.2019;22:50:44;Stop          ;04.12.2018;FEY;;LION;49;14500;7200;192;49;10;10;8400;3000;3357;3359;1;13022;34.84;33.64;33,2;BCS1388054;4;10
009540;12.12.2019;08:45:03;Normalcharge  ;04.12.2018;FEY;;LION;49;14500;7200;192;49;9;10;8400;3000;3366;3367;1;13021;26.84;28.54;31,9;BCS1388054;4;10
009540;12.12.2019;16:41:48;Stop          ;04.12.2018;FEY;;LION;49;14500;7200;224;49;96;100;8400;;4158;4158;1;13021;29.84;29.94;31,5;BCS1388054;4;10
009540;13.12.2019;10:48:01;Charge to 10% ;04.12.2018;FEY;;LION;49;14500;7200;224;49;95;100;8400;;4149;4148;1;13023;26.84;28.84;32,0;BCS1388054;4;10
009540;13.12.2019;15:42:25;Stop          ;04.12.2018;FEY;;LION;49;14500;7200;192;50;34;36;8400;3000;3499;3552;1;13524;33.54;38.94;34,6;BCS1388054;4;10
009540;13.12.2019;15:42:27;Cycle         ;04.12.2018;FEY;;LION;49;14500;7200;192;50;34;36;8400;3000;3499;3552;1;13524;33.54;38.94;34,6;BCS1388054;4;10
009540;14.12.2019;22:44:28;Stop          ;04.12.2018;FEY;;LION;49;14500;7200;224;51;93;99;8400;;4151;4153;1;13022;27.04;28.74;32,0;BCS1388054;4;10
009540;16.12.2019;07:43:14;Charge to 10% ;04.12.2018;FEY;;LION;49;14500;7200;224;51;93;100;8400;;4146;4147;1;13022;26.64;28.04;31,9;BCS1388054;4;10
009540;16.12.2019;14:36:44;Stop          ;04.12.2018;FEY;;LION;49;14500;7200;192;52;10;10;8400;3000;3365;3367;1;13022;33.34;32.44;32,4;BCS1388054;4;10
009540;16.12.2019;14:44:13;Charge to 90% ;04.12.2018;FEY;;LION;49;14500;7200;192;52;10;10;8400;3000;3366;3369;1;13022;32.74;31.04;31,7;BCS1388054;4;10
009540;16.12.2019;20:50:27;Stop          ;04.12.2018;FEY;;LION;49;14500;7200;192;52;84;90;8400;3000;4056;4058;1;13022;32.54;31.64;31,6;BCS1388054;4;10
009540;17.12.2019;08:37:49;Fastcharge    ;04.12.2018;FEY;;LION;49;14500;7200;192;52;84;90;8400;3000;4047;4048;1;13021;26.74;28.44;31,6;BCS1388054;4;10
009540;17.12.2019;10:31:06;Stop          ;04.12.2018;FEY;;LION;49;14500;7200;224;52;94;100;8400;;4160;4160;1;13021;28.54;29.44;31,4;BCS1388054;4;10
009540;17.12.2019;13:38:32;Charge to 10% ;04.12.2018;FEY;;LION;49;14500;7200;224;52;94;100;8400;;4150;4150;1;13022;27.04;28.34;30,8;BCS1388054;4;10
009540;17.12.2019;20:34:29;Stop          ;04.12.2018;FEY;;LION;49;14500;7200;192;53;10;10;8400;3000;3365;3367;1;13022;34.94;33.94;34,1;BCS1388054;4;10
009540;18.12.2019;08:31:26;Fastcharge    ;04.12.2018;FEY;;LION;49;14500;7200;192;53;10;10;8400;3000;3374;3376;1;13021;26.84;28.44;31,6;BCS1388054;4;10
009540;18.12.2019;14:29:12;Stop          ;04.12.2018;FEY;;LION;49;14500;7200;224;53;95;100;8400;;4160;4160;1;13023;30.94;30.44;31,9;BCS1388054;4;10
009540;19.12.2019;08:23:58;Charge to 60% ;04.12.2018;FEY;;LION;49;14500;7200;224;53;95;100;8400;;4150;4149;1;13022;26.74;28.54;31,6;BCS1388054;4;10
009540;19.12.2019;11:30:18;Stop          ;04.12.2018;FEY;;LION;49;14500;7200;192;54;58;60;8400;3000;3766;3765;1;13022;34.74;35.04;34,6;BCS1388054;4;10
009540;19.12.2019;12:16:45;Cycle         ;04.12.2018;FEY;;LION;49;14500;7200;192;54;58;60;8400;3000;3777;3776;1;13022;31.44;30.94;32,7;BCS1388054;4;10
009540;20.12.2019;17:30:48;Stop          ;04.12.2018;FEY;;LION;49;14500;7200;224;55;93;100;8400;;4152;4153;1;13022;27.24;28.24;30,6;BCS1388054;4;10
009540;06.01.2020;06:34:50;Charge to 60% ;04.12.2018;FEY;;LION;49;14500;7200;224;55;92;99;8400;;4123;4124;1;13022;27.04;28.64;31,9;BCS1388054;4;10
009540;06.01.2020;09:30:33;Stop          ;04.12.2018;FEY;;LION;49;14500;7200;192;56;57;60;8400;3000;3767;3768;1;13022;33.84;34.24;33,7;BCS1388054;4;10
009540;06.01.2020;09:50:38;Fastcharge    ;04.12.2018;FEY;;LION;49;14500;7200;192;56;57;60;8400;3000;3776;3777;1;13024;32.44;31.74;32,7;BCS1388054;4;10
009540;06.01.2020;13:09:19;Stop          ;04.12.2018;FEY;;LION;49;14500;7200;224;56;94;100;8400;;4159;4160;1;13023;30.44;29.84;31,4;BCS1388054;4;10