Folder: Battery_sort_V2/reader/Batterieverzeichnis (part 13)

File: 009818.txt
Serialnumber ; Date ; Time ; Action ; Date of Manufacture ; Manufacturer ; Battery Name ; Device-Chemistry ; Specification-Info ; Design-Capacity [mAh] ; Design-Voltage [mV] ; Battery Status ; Cycle Count ; SOC [%] ; Relativ SOC[%] ; Desired Voltage [mV]; Desired Current [mA]; Cell Voltage 1 [mV] ; Cell Voltage 2 [mV] ; Max_Error [%] ; Busvoltage[mV] ; Battery Temperature [°C] ; Charger Temperature [°C] ; Batterysystem ; Case ; PLace
009818;10.12.2019;15:29:01;Charge to 30% ;04.12.2018;FEY;;LION;49;14500;7200;224;43;94;100;8400;;4131;4131;1;13017;22.64;25.04;27,1;BCS1388054;5;2
009818;10.12.2019;20:48:54;Stop          ;04.12.2018;FEY;;LION;49;14500;7200;192;44;29;30;8400;3000;3556;3559;1;13015;33.54;34.54;33,1;BCS1388054;5;2
009818;11.12.2019;08:48:53;Fastcharge    ;04.12.2018;FEY;;LION;49;14500;7200;192;44;29;30;8400;3000;3566;3568;1;13015;26.64;29.24;31,9;BCS1388054;5;2
009818;11.12.2019;13:40:11;Stop          ;04.12.2018;FEY;;LION;49;14500;7200;224;44;95;100;8400;;4160;4160;1;13016;30.34;31.64;32,4;BCS1388054;5;2
009818;11.12.2019;15:46:40;Charge to 10% ;04.12.2018;FEY;;LION;49;14500;7200;224;44;96;100;8400;;4153;4153;1;13015;27.44;29.64;31,4;BCS1388054;5;2
009818;11.12.2019;22:49:07;Stop          ;04.12.2018;FEY;;LION;49;14500;7200;192;45;10;10;8400;3000;3349;3352;1;13016;34.44;35.44;33,5;BCS1388054;5;2
009818;12.12.2019;08:45:10;Normalcharge  ;04.12.2018;FEY;;LION;49;14500;7200;192;45;9;10;8400;3000;3361;3363;1;13015;26.84;29.44;31,7;BCS1388054;5;2
009818;12.12.2019;16:41:20;Stop          ;04.12.2018;FEY;;LION;49;14500;7200;224;45;96;100;8400;;4160;4160;1;13015;29.44;30.94;31,6;BCS1388054;5;2
009818;13.12.2019;10:48:05;Charge to 10% ;04.12.2018;FEY;;LION;49;14500;7200;224;45;96;100;8400;;4149;4149;1;13016;26.84;29.64;32,0;BCS1388054;5;2
009818;13.12.2019;15:40:55;Stop          ;04.12.2018;FEY;;LION;49;14500;7200;192;46;35;37;8400;3000;3501;3554;1;13513;32.94;39.64;34,6;BCS1388054;5;2
009818;13.12.2019;15:41:42;Cycle         ;04.12.2018;FEY;;LION;49;14500;7200;192;46;35;37;8400;3000;3582;3583;1;13015;32.84;37.34;34,5;BCS1388054;5;2
009818;14.12.2019;22:39:35;Stop          ;04.12.2018;FEY;;LION;49;14500;7200;224;47;93;99;8400;;4152;4153;1;13015;26.94;29.34;31,7;BCS1388054;5;2
009818;16.12.2019;07:43:20;Charge to 10% ;04.12.2018;FEY;;LION;49;14500;7200;224;47;94;100;8400;;4146;4146;1;13016;26.64;28.64;31,9;BCS1388054;5;2
009818;16.12.2019;14:34:29;Stop          ;04.12.2018;FEY;;LION;49;14500;7200;192;49;10;10;8400;3000;3362;3366;1;13016;32.74;33.94;32,5;BCS1388054;5;2
009818;16.12.2019;14:44:17;Charge to 90% ;04.12.2018;FEY;;LION;49;14500;7200;192;49;10;10;8400;3000;3365;3369;1;13015;31.94;31.94;31,9;BCS1388054;5;2
009818;16.12.2019;20:48:55;Stop          ;04.12.2018;FEY;;LION;49;14500;7200;192;49;84;90;8400;3000;4057;4059;1;13016;32.04;33.04;31,9;BCS1388054;5;2
009818;17.12.2019;08:37:53;Fastcharge    ;04.12.2018;FEY;;LION;49;14500;7200;192;49;84;90;8400;3000;4046;4048;1;13016;26.74;29.24;31,6;BCS1388054;5;2
009818;17.12.2019;10:33:46;Stop          ;04.12.2018;FEY;;LION;49;14500;7200;224;49;95;100;8400;;4158;4159;1;13016;28.34;30.14;31,1;BCS1388054;5;2
009818;17.12.2019;10:33:46;Stop          ;04.12.2018;FEY;;LION;49;14500;7200;224;49;95;100;8400;;4158;4159;1;13016;28.34;30.14;31,1;BCS1388054;5;2
009818;17.12.2019;13:38:36;Charge to 10% ;04.12.2018;FEY;;LION;49;14500;7200;224;49;95;100;8400;;4150;4150;1;13015;27.04;29.24;30,8;BCS1388054;5;2
009818;17.12.2019;20:33:18;Stop          ;04.12.2018;FEY;;LION;49;14500;7200;192;50;10;10;8400;3000;3361;3364;1;13015;34.34;35.34;34,5;BCS1388054;5;2
009818;18.12.2019;08:31:30;Fastcharge    ;04.12.2018;FEY;;LION;49;14500;7200;192;50;10;10;8400;3000;3371;3375;1;13015;26.84;29.44;31,6;BCS1388054;5;2
009818;18.12.2019;14:29:27;Stop          ;04.12.2018;FEY;;LION;49;14500;7200;224;50;95;100;8400;;4160;4161;1;13016;30.34;31.34;31,7;BCS1388054;5;2
009818;19.12.2019;08:24:02;Charge to 60% ;04.12.2018;FEY;;LION;49;14500;7200;224;50;96;100;8400;;4149;4150;1;13015;26.74;29.24;31,5;BCS1388054;5;2
009818;19.12.2019;11:31:09;Stop          ;04.12.2018;FEY;;LION;49;14500;7200;192;50;58;60;8400;3000;3764;3769;1;13015;34.14;35.54;34,4;BCS1388054;5;2
009818;19.12.2019;12:16:49;Cycle         ;04.12.2018;FEY;;LION;49;14500;7200;192;50;58;60;8400;3000;3774;3780;1;13016;30.74;31.44;32,7;BCS1388054;5;2
009818;20.12.2019;17:27:50;Stop          ;04.12.2018;FEY;;LION;49;14500;7200;224;51;94;100;8400;;4152;4153;1;13016;27.14;29.24;31,0;BCS1388054;5;2
009818;06.01.2020;06:34:55;Charge to 60% ;04.12.2018;FEY;;LION;49;14500;7200;224;51;93;99;8400;;4122;4122;1;13016;27.04;29.44;31,9;BCS1388054;5;2
009818;06.01.2020;09:30:26;Stop          ;04.12.2018;FEY;;LION;49;14500;7200;192;52;57;60;8400;3000;3760;3764;1;13016;33.34;35.54;33,9;BCS1388054;5;2
009818;06.01.2020;09:50:42;Fastcharge    ;04.12.2018;FEY;;LION;49;14500;7200;192;52;57;60;8400;3000;3770;3776;1;13017;31.84;32.04;32,7;BCS1388054;5;2
009818;06.01.2020;13:09:56;Stop          ;04.12.2018;FEY;;LION;49;14500;7200;224;52;95;100;8400;;4160;4161;1;13017;29.84;30.84;31,4;BCS1388054;5;2

File: 009821.txt
Serialnumber ; Date ; Time ; Action ; Date of Manufacture ; Manufacturer ; Battery Name ; Device-Chemistry ; Specification-Info ; Design-Capacity [mAh] ; Design-Voltage [mV] ; Battery Status ; Cycle Count ; SOC [%] ; Relativ SOC[%] ; Desired Voltage [mV]; Desired Current [mA]; Cell Voltage 1 [mV] ; Cell Voltage 2 [mV] ; Max_Error [%] ; Busvoltage[mV] ; Battery Temperature [°C] ; Charger Temperature [°C] ; Batterysystem ; Case ; PLace
009821;07.12.2020;04:14:36;Cycle         ;04.12.2018;FEY;;LION;49;14500;7200;192;2;98;98;8400;;4140;4139;1;13000;25.44;27.84;30,3;BCS1388054;6;9
009821;08.12.2020;16:20:13;Stop          ;04.12.2018;FEY;;LION;49;14500;7200;192;2;98;98;8400;;4138;4137;1;13001;27.64;29.44;31,9;BCS1388054;6;9
009821;07.02.2021;08:46:53;Normalcharge  ;04.12.2018;FEY;;LION;49;14500;7200;192;2;96;96;8400;;4115;4115;1;13002;23.44;26.24;29,2;BCS1388054;3;1
009821;07.02.2021;11:52:16;Stop           ;04.12.2018;FEY;;LION;49;14500;7200;192;2;96;96;8400;;4116;4115;1;13002;25.64;27.74;29,7;BCS1388054;3;1
009821;03.03.2021;08:17:35;Normalcharge  ;04.12.2018;FEY;;LION;49;14500;7200;192;3;76;77;8400;3000;3917;3917;1;13005;22.94;22.84;23,6;BCS1388054;5;10
009821;03.03.2021;11:26:36;Stop          ;04.12.2018;FEY;;LION;49;14500;7200;224;3;100;100;8400;;4157;4158;1;12999;28.44;28.64;31,5;BCS1388054;5;10
009821;04.04.2021;11:50:28;Normalcharge  ;04.12.2018;FEY;;LION;49;14500;7200;192;3;54;55;8400;3000;3696;3697;1;13003;24.84;26.14;27,9;BCS1388054;3;9
009821;04.04.2021;11:51:43;Stop           ;04.12.2018;FEY;;LION;49;14500;7200;128;3;54;55;8400;3000;3783;3738;1;12780;24.84;28.64;28,6;BCS1388054;3;9
009821;05.04.2021;09:37:46;Charge to 60% ;04.12.2018;FEY;;LION;49;14500;7200;192;3;54;55;8400;3000;3698;3699;1;13003;24.84;26.44;26,1;BCS1388054;2;4
009821;05.04.2021;10:03:48;Stop          ;04.12.2018;FEY;;LION;49;14500;7200;192;3;58;60;8400;3000;3762;3764;1;12999;26.84;29.74;31,4;BCS1388054;2;4
009821;22.08.2021;11:08:00;Normalcharge  ;04.12.2018;FEY;;LION;49;14500;7200;192;3;45;46;8400;3000;3623;3624;1;12997;22.24;29.24;32,1;BCS1388054;3;18
009821;22.08.2021;11:08:34;Stop           ;04.12.2018;FEY;;LION;49;14500;7200;128;3;45;46;8400;3000;3691;3654;1;12683;22.44;30.64;32,4;BCS1388054;3;18

File: 009823.txt
Serialnumber ; Date ; Time ; Action ; Date of Manufacture ; Manufacturer ; Battery Name ; Device-Chemistry ; Specification-Info ; Design-Capacity [mAh] ; Design-Voltage [mV] ; Battery Status ; Cycle Count ; SOC [%] ; Relativ SOC[%] ; Desired Voltage [mV]; Desired Current [mA]; Cell Voltage 1 [mV] ; Cell Voltage 2 [mV] ; Max_Error [%] ; Busvoltage[mV] ; Battery Temperature [°C] ; Charger Temperature [°C] ; Batterysystem ; Case ; PLace
009823;07.12.2020;04:14:32;Cycle         ;04.12.2018;FEY;;LION;49;14500;7200;16576;2;99;98;;;4144;4144;1;13003;25.94;27.04;30,3;BCS1388054;5;12
009823;08.12.2020;16:20:01;Stop          ;04.12.2018;FEY;;LION;49;14500;7200;16576;2;99;98;;;4142;4142;1;13000;27.84;28.34;31,7;BCS1388054;5;12
009823;07.02.2021;08:46:53;Normalcharge  ;04.12.2018;FEY;;LION;49;14500;7200;16576;2;97;96;;;4119;4119;1;13001;23.64;25.74;29,2;BCS1388054;3;2
009823;07.02.2021;11:52:16;Stop           ;04.12.2018;FEY;;LION;49;14500;7200;16576;2;97;96;;;4119;4119;1;13003;25.94;27.14;29,7;BCS1388054;3;2
009823;03.03.2021;08:17:21;Normalcharge  ;04.12.2018;FEY;;LION;49;14500;7200;16576;2;92;92;;;4073;4074;1;13014;23.24;23.04;23,5;BCS1388054;3;15
009823;04.03.2021;07:53:40;Stop           ;04.12.2018;FEY;;LION;49;14500;7200;16576;2;92;92;;;4073;4074;1;13009;26.64;28.04;31,5;BCS1388054;3;15
009823;04.04.2021;11:50:28;Normalcharge  ;04.12.2018;FEY;;LION;49;14500;7200;192;2;91;90;8400;3000;4052;4053;1;13005;25.04;25.74;27,9;BCS1388054;3;18
009823;04.04.2021;11:51:43;Stop           ;04.12.2018;FEY;;LION;49;14500;7200;128;2;91;91;8400;3000;4121;4090;1;12771;25.14;28.44;28,6;BCS1388054;3;18
009823;22.08.2021;11:37:25;Normalcharge  ;04.12.2018;FEY;;LION;49;14500;7200;192;3;30;31;8400;3000;3560;3561;1;12991;21.34;28.34;31,9;BCS1388054;4;11
009823;22.08.2021;11:38:13;Stop          ;04.12.2018;FEY;;LION;49;14500;7200;128;3;30;31;8400;3000;3631;3593;1;12601;21.54;30.14;32,1;BCS1388054;4;11

File: 009825.txt
Serialnumber ; Date ; Time ; Action ; Date of Manufacture ; Manufacturer ; Battery Name ; Device-Chemistry ; Specification-Info ; Design-Capacity [mAh] ; Design-Voltage [mV] ; Battery Status ; Cycle Count ; SOC [%] ; Relativ SOC[%] ; Desired Voltage [mV]; Desired Current [mA]; Cell Voltage 1 [mV] ; Cell Voltage 2 [mV] ; Max_Error [%] ; Busvoltage[mV] ; Battery Temperature [°C] ; Charger Temperature [°C] ; Batterysystem ; Case ; PLace
009825;30.11.2020;09:42:55;Stop          ;04.12.2018;FEY;;LION;49;14500;7200;192;1;97;98;8400;;4148;4150;1;13020;27.34;28.84;31,7;BCS1388054;7;3
009825;12.01.2021;04:17:28;Ladung auf 90% ;04.12.2018;FEY;;LION;49;14500;7200;192;1;96;97;8400;;4127;4129;1;13008;22.74;23.24;23,6;BCS1388054;3;18
009825;12.01.2021;04:57:30;Stop           ;04.12.2018;FEY;;LION;49;14500;7200;192;1;90;90;8400;3000;4062;4063;1;13003;27.44;29.94;31,5;BCS1388054;3;18
009825;12.01.2021;05:21:45;Cycle          ;04.12.2018;FEY;;LION;49;14500;7200;192;1;90;90;8400;3000;4066;4067;1;13005;27.04;27.94;30,4;BCS1388054;3;18
009825;13.01.2021;08:23:25;Stop           ;04.12.2018;FEY;;LION;49;14500;7200;224;2;97;100;8400;;4157;4158;1;13003;26.54;27.74;31,4;BCS1388054;3;18
009825;21.02.2021;13:43:48;Normalcharge  ;04.12.2018;FEY;;LION;49;14500;7200;192;2;67;69;8400;3000;3849;3849;1;13011;22.64;23.14;27,7;BCS1388054;3;5
009825;21.02.2021;20:44:52;Stop           ;04.12.2018;FEY;;LION;49;14500;7200;224;2;98;100;8400;;4153;4154;1;13006;26.24;27.14;31,2;BCS1388054;3;5
009825;06.04.2021;08:39:16;Normalcharge  ;04.12.2018;FEY;;LION;49;14500;7200;224;2;96;99;8400;;4128;4129;1;12998;20.94;26.74;28,1;BCS1388054;6;2
009825;06.04.2021;08:40:03;Stop          ;04.12.2018;FEY;;LION;49;14500;7200;224;2;96;99;8400;;4128;4129;1;12974;20.94;27.24;28,5;BCS1388054;6;2
009825;08.04.2021;07:58:44;Normalcharge  ;04.12.2018;FEY;;LION;49;14500;7200;224;2;96;99;8400;;4127;4128;1;13003;24.84;22.84;26,4;BCS1388054;6;2
009825;08.04.2021;07:59:23;Stop          ;04.12.2018;FEY;;LION;49;14500;7200;224;2;96;99;8400;;4127;4128;1;13002;24.84;26.54;26,7;BCS1388054;6;2
009825;08.04.2021;10:36:16;Normalcharge  ;04.12.2018;FEY;;LION;49;14500;7200;224;2;96;99;8400;;4127;4128;1;13001;25.04;27.54;28,6;BCS1388054;6;2
009825;08.04.2021;10:37:11;Stop          ;04.12.2018;FEY;;LION;49;14500;7200;224;2;96;99;8400;;4128;4129;1;12975;25.04;28.24;29,2;BCS1388054;6;2
009825;18.04.2021;08:34:33;Normalcharge  ;04.12.2018;FEY;;LION;49;14500;7200;192;2;96;98;8400;;4124;4124;1;12999;25.74;28.44;28,2;BCS1388054;6;2
009825;18.04.2021;08:34:41;Stop          ;04.12.2018;FEY;;LION;49;14500;7200;192;2;96;98;8400;;4123;4124;1;12999;25.74;28.54;28,2;BCS1388054;6;2
009825;04.08.2021;07:24:35;Normalcharge  ;04.12.2018;FEY;;LION;49;14500;7200;192;2;93;96;8400;;4091;4091;1;12997;29.74;31.44;31,5;BCS1388054;6;2
009825;04.08.2021;07:25:17;Stop          ;04.12.2018;FEY;;LION;49;14500;7200;192;2;93;96;8400;;4091;4091;1;12978;29.74;32.14;31,6;BCS1388054;6;2
009825;22.08.2021;11:37:21;Normalcharge  ;04.12.2018;FEY;;LION;49;14500;7200;192;2;87;90;8400;3000;4039;4040;1;13010;21.54;29.04;31,9;BCS1388054;5;15
009825;22.08.2021;11:38:04;Stop          ;04.12.2018;FEY;;LION;49;14500;7200;128;2;87;90;8400;3000;4102;4071;1;12759;21.64;30.54;32,0;BCS1388054;5;15
009825;01.11.2021;10:18:16;Normalcharge  ;04.12.2018;FEY;;LION;49;14500;7200;192;2;82;84;8400;3000;3972;3972;1;12993;23.94;26.24;28,2;BCS1388054;3;6
009825;01.11.2021;10:18:55;Stop           ;04.12.2018;FEY;;LION;49;14500;7200;128;2;82;84;8400;3000;4019;4007;1;12617;23.94;27.54;28,2;BCS1388054;3;6
009825;28.12.2021;09:01:25;Normalcharge  ;04.12.2018;FEY;;LION;49;14500;7200;192;2;80;83;8400;3000;3954;3954;1;13009;23.44;23.94;25,3;BCS1388054;3;7
009825;28.12.2021;09:02:24;Stop           ;04.12.2018;FEY;;LION;49;14500;7200;128;2;80;83;8400;3000;4046;4001;1;12568;23.44;26.24;25,8;BCS1388054;3;7
009825;14.03.2022;10:33:51;Normalcharge  ;04.12.2018;FEY;;LION;49;14500;7200;192;2;49;51;8400;3000;3654;3654;1;13003;23.74;24.34;25,3;BCS1388054;5;10
009825;14.03.2022;10:38:12;Stop          ;04.12.2018;FEY;;LION;49;14500;7200;128;2;50;52;8400;3000;3753;3704;1;12689;24.04;29.74;28,1;BCS1388054;5;10

File: 009834.txt
Serialnumber ; Date ; Time ; Action ; Date of Manufacture ; Manufacturer ; Battery Name ; Device-Chemistry ; Specification-Info ; Design-Capacity [mAh] ; Design-Voltage [mV] ; Battery Status ; Cycle Count ; SOC [%] ; Relativ SOC[%] ; Desired Voltage [mV]; Desired Current [mA]; Cell Voltage 1 [mV] ; Cell Voltage 2 [mV] ; Max_Error [%] ; Busvoltage[mV] ; Battery Temperature [°C] ; Charger Temperature [°C] ; Batterysystem ; Case ; PLace
009834;07.02.2021;08:46:53;Normalcharge  ;03.12.2018;FEY;;LION;49;14500;7200;16576;3;93;96;;;4108;4107;1;12999;23.34;24.64;29,2;BCS1388054;3;6
009834;07.02.2021;11:52:16;Stop           ;03.12.2018;FEY;;LION;49;14500;7200;16576;3;93;96;;;4108;4107;1;12999;25.44;25.64;29,7;BCS1388054;3;6
009834;03.03.2021;08:17:29;Normalcharge  ;03.12.2018;FEY;;LION;49;14500;7200;192;3;86;88;8400;3000;4034;4033;1;13012;22.84;23.04;23,5;BCS1388054;4;8
009834;03.03.2021;10:32:46;Stop          ;03.12.2018;FEY;;LION;49;14500;7200;224;3;98;100;8400;;4156;4155;1;13003;28.04;29.24;32,0;BCS1388054;4;8
009834;04.04.2021;11:50:02;Normalcharge  ;03.12.2018;FEY;;LION;49;14500;7200;192;4;59;62;8400;3000;3769;3769;1;13016;24.44;26.44;27,7;BCS1388054;6;15
009834;04.04.2021;11:51:24;Stop          ;03.12.2018;FEY;;LION;49;14500;7200;128;4;60;62;8400;3000;3860;3813;1;12667;24.54;29.64;28,5;BCS1388054;6;15
009834;05.04.2021;09:37:37;Charge to 60% ;03.12.2018;FEY;;LION;49;14500;7200;192;4;60;62;8400;3000;3773;3772;1;12993;24.74;26.34;26,0;BCS1388054;1;2
009834;05.04.2021;10:01:53;Stop          ;03.12.2018;FEY;;LION;49;14500;7200;192;4;58;60;8400;3000;3735;3734;1;12990;25.64;29.44;31,2;BCS1388054;1;2
009834;22.08.2021;11:37:25;Normalcharge  ;03.12.2018;FEY;;LION;49;14500;7200;192;4;36;37;8400;3000;3576;3575;1;13004;21.14;28.24;31,9;BCS1388054;4;1
009834;22.08.2021;11:38:13;Stop          ;03.12.2018;FEY;;LION;49;14500;7200;128;4;36;37;8400;3000;3655;3610;1;12655;21.24;30.44;32,1;BCS1388054;4;1
009834;25.08.2021;08:15:08;Charge to 60% ;03.12.2018;FEY;;LION;49;14500;7200;192;4;35;36;8400;3000;3580;3579;1;13001;30.04;32.44;33,4;BCS1388054;4;1
009834;25.08.2021;12:59:17;Stop          ;03.12.2018;FEY;;LION;49;14500;7200;192;4;57;60;8400;3000;3724;3723;1;13002;32.34;34.84;36,6;BCS1388054;4;1
009834;01.11.2021;09:52:21;Normalcharge  ;03.12.2018;FEY;;LION;49;14500;7200;192;4;52;55;8400;3000;3697;3696;1;13000;25.54;26.24;26,4;BCS1388054;1;18
009834;01.11.2021;09:53:14;Stop          ;03.12.2018;FEY;;LION;49;14500;7200;128;4;52;55;8400;3000;3783;3732;1;12444;25.54;28.64;26,8;BCS1388054;1;18
009834;01.11.2021;10:01:59;Normalcharge  ;03.12.2018;FEY;;LION;49;14500;7200;192;4;52;55;8400;3000;3699;3698;1;12993;25.74;27.44;29,5;BCS1388054;1;18
009834;01.11.2021;10:03:29;Stop          ;03.12.2018;FEY;;LION;49;14500;7200;128;4;53;55;8400;3000;3790;3740;1;12437;25.84;30.64;29,3;BCS1388054;1;18
009834;01.11.2021;10:27:58;Normalcharge  ;03.12.2018;FEY;;LION;49;14500;7200;192;4;53;55;8400;3000;3702;3701;1;12996;26.04;26.84;27,8;BCS1388054;1;18
009834;01.11.2021;10:28:31;Stop          ;03.12.2018;FEY;;LION;49;14500;7200;128;4;53;55;8400;3000;3755;3724;1;12613;26.04;28.24;28,1;BCS1388054;1;18
009834;01.11.2021;10:31:48;Charge to 60% ;03.12.2018;FEY;;LION;49;14500;7200;192;4;53;55;8400;3000;3703;3701;1;12995;26.04;22.04;29,9;BCS1388054;1;18
009834;01.11.2021;11:39:51;Stop          ;03.12.2018;FEY;;LION;49;14500;7200;192;4;57;60;8400;3000;3752;3751;1;12993;27.34;28.84;32,5;BCS1388054;1;18
009834;07.02.2022;08:50:47;Normalcharge  ;03.12.2018;FEY;;LION;49;14500;7200;192;4;54;56;8400;3000;3711;3710;1;13005;21.84;21.74;25,0;BCS1388054;6;1
009834;13.02.2022;10:58:25;Normalcharge  ;03.12.2018;FEY;;LION;49;14500;7200;224;4;96;100;8400;;4145;4146;1;12998;22.24;22.84;26,1;BCS1388054;3;8
009834;13.02.2022;17:19:51;Stop           ;03.12.2018;FEY;;LION;49;14500;7200;224;4;95;100;8400;;4145;4146;1;12991;24.84;26.94;29,0;BCS1388054;3;8

File: 009835.txt
Serialnumber ; Date ; Time ; Action ; Date of Manufacture ; Manufacturer ; Battery Name ; Device-Chemistry ; Specification-Info ; Design-Capacity [mAh] ; Design-Voltage [mV] ; Battery Status ; Cycle Count ; SOC [%] ; Relativ SOC[%] ; Desired Voltage [mV]; Desired Current [mA]; Cell Voltage 1 [mV] ; Cell Voltage 2 [mV] ; Max_Error [%] ; Busvoltage[mV] ; Battery Temperature [°C] ; Charger Temperature [°C] ; Batterysystem ; Case ; PLace
009835;07.02.2021;08:46:53;Normalcharge  ;04.12.2018;FEY;;LION;49;14500;7200;192;3;96;96;8400;;4106;4106;1;13006;23.44;25.14;29,2;BCS1388054;3;5
009835;07.02.2021;11:52:16;Stop           ;04.12.2018;FEY;;LION;49;14500;7200;192;3;96;96;8400;;4106;4106;1;13006;25.64;26.34;29,7;BCS1388054;3;5
009835;03.03.2021;08:17:17;Normalcharge  ;04.12.2018;FEY;;LION;49;14500;7200;192;3;95;95;8400;3000;4099;4099;1;13002;22.94;23.04;23,5;BCS1388054;2;13
009835;04.03.2021;07:53:46;Stop          ;04.12.2018;FEY;;LION;49;14500;7200;224;3;100;100;8400;;4146;4147;1;12994;26.24;27.74;31,6;BCS1388054;2;13
009835;04.04.2021;11:50:33;Normalcharge  ;04.12.2018;FEY;;LION;49;14500;7200;192;4;54;55;8400;3000;3694;3695;1;13005;24.74;27.04;27,9;BCS1388054;2;4
009835;04.04.2021;11:51:48;Stop          ;04.12.2018;FEY;;LION;49;14500;7200;128;4;54;55;8400;3000;3783;3737;1;12602;24.84;29.84;28,6;BCS1388054;2;4
009835;05.04.2021;09:37:46;Charge to 60% ;04.12.2018;FEY;;LION;49;14500;7200;192;4;54;55;8400;3000;3696;3698;1;12991;24.94;26.44;26,1;BCS1388054;2;7
009835;05.04.2021;10:03:48;Stop          ;04.12.2018;FEY;;LION;49;14500;7200;192;4;58;60;8400;3000;3757;3766;1;12987;26.84;30.34;31,4;BCS1388054;2;7
009835;22.08.2021;11:08:19;Normalcharge  ;04.12.2018;FEY;;LION;49;14500;7200;192;4;54;56;8400;3000;3699;3700;1;13024;29.54;30.64;32,2;BCS1388054;7;17
009835;22.08.2021;11:08:51;Stop          ;04.12.2018;FEY;;LION;49;14500;7200;128;4;54;56;8400;3000;3730;3715;1;12848;29.54;31.94;32,6;BCS1388054;7;17
009835;25.08.2021;08:15:08;Charge to 60% ;04.12.2018;FEY;;LION;49;14500;7200;192;4;54;56;8400;3000;3699;3701;1;13003;30.24;31.54;33,4;BCS1388054;4;12
009835;25.08.2021;12:59:17;Stop          ;04.12.2018;FEY;;LION;49;14500;7200;192;4;58;60;8400;3000;3746;3750;1;13003;32.44;33.24;36,6;BCS1388054;4;12
009835;01.11.2021;09:52:21;Normalcharge  ;04.12.2018;FEY;;LION;49;14500;7200;192;4;56;57;8400;3000;3716;3718;1;12999;25.74;26.64;26,4;BCS1388054;1;14
009835;01.11.2021;09:53:14;Stop          ;04.12.2018;FEY;;LION;49;14500;7200;128;4;56;57;8400;3000;3800;3755;1;12465;25.74;29.14;26,8;BCS1388054;1;14
009835;01.11.2021;10:01:59;Normalcharge  ;04.12.2018;FEY;;LION;49;14500;7200;192;4;56;57;8400;3000;3718;3720;1;12994;25.84;28.54;29,5;BCS1388054;1;14
009835;01.11.2021;10:03:29;Stop          ;04.12.2018;FEY;;LION;49;14500;7200;128;4;56;57;8400;3000;3807;3763;1;12466;25.94;31.84;29,3;BCS1388054;1;14
009835;01.11.2021;10:27:58;Normalcharge  ;04.12.2018;FEY;;LION;49;14500;7200;192;4;56;57;8400;3000;3721;3723;1;12990;26.14;27.24;27,8;BCS1388054;1;14
009835;01.11.2021;10:28:31;Stop          ;04.12.2018;FEY;;LION;49;14500;7200;128;4;56;58;8400;3000;3752;3738;1;12640;26.14;28.64;28,1;BCS1388054;1;14
009835;01.11.2021;10:31:48;Charge to 60% ;04.12.2018;FEY;;LION;49;14500;7200;192;4;56;58;8400;3000;3722;3724;1;12990;26.14;27.64;29,9;BCS1388054;1;14
009835;01.11.2021;11:39:51;Stop          ;04.12.2018;FEY;;LION;49;14500;7200;192;4;58;60;8400;3000;3750;3754;1;12988;27.64;30.14;32,5;BCS1388054;1;14
009835;09.02.2022;08:17:05;Normalcharge  ;04.12.2018;FEY;;LION;49;14500;7200;192;4;56;57;8400;3000;3710;3711;1;13000;22.24;22.94;23,1;BCS1388054;4;3
009835;09.02.2022;13:58:16;Stop          ;04.12.2018;FEY;;LION;49;14500;7200;192;4;56;57;8400;3000;3711;3712;1;12993;24.94;27.04;30,0;BCS1388054;4;3
009835;13.02.2022;10:58:25;Normalcharge  ;04.12.2018;FEY;;LION;49;14500;7200;192;4;55;56;8400;3000;3709;3711;1;13006;22.24;21.54;26,1;BCS1388054;3;16
009835;13.02.2022;17:19:51;Stop           ;04.12.2018;FEY;;LION;49;14500;7200;224;4;98;100;8400;;4154;4155;1;13000;24.94;25.34;29,0;BCS1388054;3;16

File: 009841.txt
Serialnumber ; Date ; Time ; Action ; Date of Manufacture ; Manufacturer ; Battery Name ; Device-Chemistry ; Specification-Info ; Design-Capacity [mAh] ; Design-Voltage [mV] ; Battery Status ; Cycle Count ; SOC [%] ; Relativ SOC[%] ; Desired Voltage [mV]; Desired Current [mA]; Cell Voltage 1 [mV] ; Cell Voltage 2 [mV] ; Max_Error [%] ; Busvoltage[mV] ; Battery Temperature [°C] ; Charger Temperature [°C] ; Batterysystem ; Case ; PLace
009841;07.12.2020;04:14:21;Cycle         ;04.12.2018;FEY;;LION;49;14500;7200;16576;3;97;99;;;4155;4159;1;12997;25.74;27.64;30,3;BCS1388054;2;12
009841;08.12.2020;16:19:44;Stop          ;04.12.2018;FEY;;LION;49;14500;7200;16576;3;97;99;;;4153;4156;1;12997;27.44;28.94;31,9;BCS1388054;2;12
009841;07.02.2021;08:46:48;Normalcharge  ;04.12.2018;FEY;;LION;49;14500;7200;16576;3;96;97;;;4126;4128;1;13001;23.44;26.74;29,2;BCS1388054;2;2
009841;07.02.2021;11:52:12;Stop          ;04.12.2018;FEY;;LION;49;14500;7200;16576;3;96;97;;;4126;4128;1;13001;25.64;28.14;29,7;BCS1388054;2;2
009841;03.03.2021;08:17:17;Normalcharge  ;04.12.2018;FEY;;LION;49;14500;7200;16576;3;94;96;;;4108;4111;1;13010;22.94;23.64;23,5;BCS1388054;2;2
009841;04.03.2021;07:53:45;Stop          ;04.12.2018;FEY;;LION;49;14500;7200;16576;3;94;96;;;4108;4110;1;13002;26.24;28.74;31,6;BCS1388054;2;2
009841;04.04.2021;11:50:33;Normalcharge  ;04.12.2018;FEY;;LION;49;14500;7200;192;3;50;51;8400;3000;3669;3670;1;13004;24.84;27.24;27,9;BCS1388054;2;2
009841;04.04.2021;11:51:48;Stop          ;04.12.2018;FEY;;LION;49;14500;7200;128;3;50;51;8400;3000;3754;3709;1;12614;24.94;30.24;28,6;BCS1388054;2;2
009841;05.04.2021;09:38:17;Charge to 60% ;04.12.2018;FEY;;LION;49;14500;7200;192;3;50;51;8400;3000;3670;3671;1;13012;24.94;25.94;26,4;BCS1388054;5;9
009841;05.04.2021;10:34:50;Charge to 60% ;04.12.2018;FEY;;LION;49;14500;7200;192;3;59;60;8400;3000;3766;3768;1;12913;27.94;29.34;32,4;BCS1388054;5;9
009841;05.04.2021;13:16:09;Stop          ;04.12.2018;FEY;;LION;49;14500;7200;192;3;59;60;8400;3000;3763;3765;1;13009;27.64;29.24;32,2;BCS1388054;5;9
009841;22.08.2021;11:37:21;Normalcharge  ;04.12.2018;FEY;;LION;49;14500;7200;192;3;39;40;8400;3000;3602;3603;1;13000;21.54;28.64;31,9;BCS1388054;5;6
009841;22.08.2021;11:38:04;Stop          ;04.12.2018;FEY;;LION;49;14500;7200;128;3;39;40;8400;3000;3667;3632;1;12747;21.74;29.94;32,0;BCS1388054;5;6