Folder: Battery_sort_V2/reader/Batterieverzeichnis_new (part 14)

File: 009766.txt
Serialnumber ; Date ; Time ; Action ; Date of Manufacture ; Manufacturer ; Battery Name ; Device-Chemistry ; Specification-Info ; Design-Capacity [mAh] ; Design-Voltage [mV] ; Battery Status ; Cycle Count ; SOC [%] ; Relativ SOC[%] ; Desired Voltage [mV]; Desired Current [mA]; Cell Voltage 1 [mV] ; Cell Voltage 2 [mV] ; Max_Error [%] ; Busvoltage[mV] ; Battery Temperature [°C] ; Charger Temperature [°C] ; Batterysystem ; Case ; PLace
009766;07.12.2020;04:14:32;Cycle         ;04.12.2018;FEY;;LION;49;14500;7200;192;3;97;98;8400;;4145;4145;1;13008;25.44;27.64;30,3;BCS1388054;5;16
009766;08.12.2020;16:20:01;Stop          ;04.12.2018;FEY;;LION;49;14500;7200;192;3;97;98;8400;;4142;4143;1;13008;27.44;29.24;31,7;BCS1388054;5;16
009766;07.02.2021;08:47:00;Normalcharge  ;04.12.2018;FEY;;LION;49;14500;7200;192;3;91;92;8400;3000;4079;4080;1;12990;23.24;24.84;29,2;BCS1388054;4;11
009766;07.02.2021;11:52:20;Stop          ;04.12.2018;FEY;;LION;49;14500;7200;224;3;99;100;8400;;4149;4150;1;12991;25.54;25.84;29,7;BCS1388054;4;11
009766;03.03.2021;08:17:17;Normalcharge  ;04.12.2018;FEY;;LION;49;14500;7200;192;3;92;95;8400;3000;4087;4087;1;13023;22.84;23.24;23,5;BCS1388054;2;6
009766;04.03.2021;07:53:46;Stop          ;04.12.2018;FEY;;LION;49;14500;7200;224;3;97;100;8400;;4146;4147;1;13015;25.94;26.64;31,6;BCS1388054;2;6
009766;04.04.2021;11:49:55;Normalcharge  ;04.12.2018;FEY;;LION;49;14500;7200;224;3;96;99;8400;;4132;4133;1;13028;24.74;25.24;27,5;BCS1388054;7;18
009766;04.04.2021;11:51:17;Stop          ;04.12.2018;FEY;;LION;49;14500;7200;224;3;96;99;8400;;4132;4132;1;12745;24.74;25.64;28,4;BCS1388054;7;18
009766;28.12.2021;09:01:33;Normalcharge  ;04.12.2018;FEY;;LION;49;14500;7200;192;4;53;56;8400;3000;3722;3722;1;13006;23.34;23.84;25,4;BCS1388054;5;1
009766;28.12.2021;09:02:46;Stop          ;04.12.2018;FEY;;LION;49;14500;7200;128;4;54;57;8400;3000;3811;3765;1;12676;23.44;26.64;26,0;BCS1388054;5;1
009766;07.02.2022;08:50:37;Normalcharge  ;04.12.2018;FEY;;LION;49;14500;7200;192;4;53;57;8400;3000;3712;3713;1;13033;22.04;21.64;25,0;BCS1388054;7;7
009766;07.02.2022;14:21:07;Stop          ;04.12.2018;FEY;;LION;49;14500;7200;224;4;97;100;8400;;4153;4154;1;13025;25.14;26.14;28,9;BCS1388054;7;7

File: 009779.txt
Serialnumber ; Date ; Time ; Action ; Date of Manufacture ; Manufacturer ; Battery Name ; Device-Chemistry ; Specification-Info ; Design-Capacity [mAh] ; Design-Voltage [mV] ; Battery Status ; Cycle Count ; SOC [%] ; Relativ SOC[%] ; Desired Voltage [mV]; Desired Current [mA]; Cell Voltage 1 [mV] ; Cell Voltage 2 [mV] ; Max_Error [%] ; Busvoltage[mV] ; Battery Temperature [°C] ; Charger Temperature [°C] ; Batterysystem ; Case ; PLace
009779;07.12.2020;04:14:28;Cycle         ;04.12.2018;FEY;;LION;49;14500;7200;16576;4;94;98;;;4141;4141;1;12994;25.64;27.24;30,3;BCS1388054;4;5
009779;08.12.2020;16:19:56;Stop          ;04.12.2018;FEY;;LION;49;14500;7200;16576;4;94;98;;;4138;4138;1;12993;27.64;28.44;31,9;BCS1388054;4;5
009779;07.02.2021;08:46:54;Normalcharge  ;04.12.2018;FEY;;LION;49;14500;7200;16576;4;91;95;;;4100;4100;1;13010;23.44;25.54;29,2;BCS1388054;3;15
009779;07.02.2021;11:52:16;Stop           ;04.12.2018;FEY;;LION;49;14500;7200;16576;4;91;95;;;4100;4100;1;13010;25.84;27.24;29,7;BCS1388054;3;15
009779;03.03.2021;08:17:40;Normalcharge  ;04.12.2018;FEY;;LION;49;14500;7200;192;4;66;68;8400;3000;3851;3850;1;12989;23.14;22.54;23,6;BCS1388054;6;16
009779;03.03.2021;11:56:52;Stop          ;04.12.2018;FEY;;LION;49;14500;7200;224;4;97;100;8400;;4158;4158;1;12982;28.64;28.34;31,7;BCS1388054;6;16
009779;06.04.2021;08:39:03;Normalcharge  ;04.12.2018;FEY;;LION;49;14500;7200;2768;5;;;8400;3000;3131;3106;1;13010;25.14;25.04;28,1;BCS1388054;4;13
009779;06.04.2021;08:39:53;Stop          ;04.12.2018;FEY;;LION;49;14500;7200;2768;5;;;8400;3000;3131;3106;1;13008;25.04;26.54;28,4;BCS1388054;4;13
009779;08.04.2021;07:59:34;Stop          ;04.12.2018;FEY;;LION;49;14500;7200;144;5;1;1;8400;3000;3303;3233;1;12980;25.24;28.34;26,7;BCS1388054;4;13
009779;08.04.2021;08:09:05;Charge to 60% ;04.12.2018;FEY;;LION;49;14500;7200;720;5;1;1;8400;3000;3157;3134;1;13013;25.24;24.54;27,4;BCS1388054;1;13
009779;08.04.2021;10:32:41;Stop          ;04.12.2018;FEY;;LION;49;14500;7200;128;5;31;32;8400;3000;3667;3618;1;12971;28.24;33.54;28,8;BCS1388054;1;13
009779;08.04.2021;10:34:35;Normalcharge  ;04.12.2018;FEY;;LION;49;14500;7200;192;5;31;32;8400;3000;3582;3582;1;13009;28.24;29.64;28,1;BCS1388054;1;13
009779;08.04.2021;10:36:49;Stop          ;04.12.2018;FEY;;LION;49;14500;7200;128;5;31;33;8400;3000;3668;3619;1;12889;28.14;32.24;28,9;BCS1388054;1;13
009779;18.04.2021;08:33:24;Normalcharge  ;04.12.2018;FEY;;LION;49;14500;7200;192;5;33;35;8400;3000;3572;3571;1;13012;26.14;25.54;27,7;BCS1388054;1;13
009779;18.04.2021;08:33:29;Stop          ;04.12.2018;FEY;;LION;49;14500;7200;192;5;33;35;8400;3000;3572;3571;1;13010;26.14;25.64;27,7;BCS1388054;1;13
009779;04.08.2021;07:25:01;Normalcharge  ;04.12.2018;FEY;;LION;49;14500;7200;192;5;32;34;8400;3000;3555;3554;1;13004;30.54;29.94;31,5;BCS1388054;1;13
009779;04.08.2021;07:25:57;Stop          ;04.12.2018;FEY;;LION;49;14500;7200;128;5;32;34;8400;3000;3640;3590;1;12789;30.54;32.34;31,9;BCS1388054;1;13
009779;25.08.2021;08:15:19;Charge to 60% ;04.12.2018;FEY;;LION;49;14500;7200;192;5;30;32;8400;3000;3551;3549;1;12993;30.34;32.14;33,5;BCS1388054;2;12
009779;25.08.2021;10:43:16;Stop          ;04.12.2018;FEY;;LION;49;14500;7200;192;5;56;60;8400;3000;3720;3720;1;12991;33.04;34.24;36,4;BCS1388054;2;12
009779;01.11.2021;09:52:14;Normalcharge  ;04.12.2018;FEY;;LION;49;14500;7200;192;5;51;54;8400;3000;3688;3688;1;12987;25.84;26.44;26,3;BCS1388054;2;7
009779;01.11.2021;09:53:17;Stop          ;04.12.2018;FEY;;LION;49;14500;7200;128;5;51;54;8400;3000;3776;3727;1;12510;25.84;29.14;26,8;BCS1388054;2;7
009779;01.11.2021;10:02:05;Normalcharge  ;04.12.2018;FEY;;LION;49;14500;7200;192;5;51;54;8400;3000;3690;3690;1;12980;26.04;28.44;29,5;BCS1388054;2;7
009779;01.11.2021;10:03:24;Stop          ;04.12.2018;FEY;;LION;49;14500;7200;128;5;51;54;8400;3000;3780;3731;1;12498;26.04;31.14;29,3;BCS1388054;2;7
009779;01.11.2021;10:18:11;Normalcharge  ;04.12.2018;FEY;;LION;49;14500;7200;192;5;51;54;8400;3000;3693;3693;1;12981;26.24;27.54;28,4;BCS1388054;2;7
009779;01.11.2021;10:18:48;Stop          ;04.12.2018;FEY;;LION;49;14500;7200;128;5;51;55;8400;3000;3753;3718;1;12565;26.24;29.04;28,2;BCS1388054;2;7
009779;01.11.2021;10:28:53;Normalcharge  ;04.12.2018;FEY;;LION;49;14500;7200;192;5;51;55;8400;3000;3694;3694;1;12981;26.24;27.84;28,2;BCS1388054;2;7
009779;01.11.2021;10:29:00;Stop          ;04.12.2018;FEY;;LION;49;14500;7200;192;5;51;55;8400;3000;3694;3693;1;12967;26.24;27.94;28,4;BCS1388054;2;7
009779;01.11.2021;11:53:39;Stop          ;04.12.2018;FEY;;LION;49;14500;7200;192;5;56;60;8400;3000;3747;3746;1;12980;28.34;30.54;32,5;BCS1388054;2;7
009779;07.02.2022;08:50:57;Normalcharge  ;04.12.2018;FEY;;LION;49;14500;7200;192;5;54;57;8400;3000;3705;3705;1;13010;22.14;22.24;25,1;BCS1388054;4;8
009779;07.02.2022;13:19:09;Stop          ;04.12.2018;FEY;;LION;49;14500;7200;224;5;95;100;8400;;4163;4162;1;13005;27.64;27.54;29,7;BCS1388054;4;8
009779;14.03.2022;12:14:36;Normalcharge  ;04.12.2018;FEY;;LION;49;14500;7200;224;5;93;99;8400;;4129;4128;1;13006;24.44;26.04;27,7;BCS1388054;3;13
009779;14.03.2022;12:18:51;Stop           ;04.12.2018;FEY;;LION;49;14500;7200;224;5;93;99;8400;;4129;4128;1;12972;24.54;26.84;29,5;BCS1388054;3;13

File: 009780.txt
Serialnumber ; Date ; Time ; Action ; Date of Manufacture ; Manufacturer ; Battery Name ; Device-Chemistry ; Specification-Info ; Design-Capacity [mAh] ; Design-Voltage [mV] ; Battery Status ; Cycle Count ; SOC [%] ; Relativ SOC[%] ; Desired Voltage [mV]; Desired Current [mA]; Cell Voltage 1 [mV] ; Cell Voltage 2 [mV] ; Max_Error [%] ; Busvoltage[mV] ; Battery Temperature [°C] ; Charger Temperature [°C] ; Batterysystem ; Case ; PLace
009780;30.11.2020;09:42:55;Stop          ;04.12.2018;FEY;;LION;49;14500;7200;16576;2;98;99;;;4153;4155;1;13024;27.44;29.44;31,7;BCS1388054;7;2
009780;12.01.2021;04:17:28;Ladung auf 90% ;04.12.2018;FEY;;LION;49;14500;7200;16576;2;97;97;;;4133;4134;1;13014;22.84;23.44;23,6;BCS1388054;3;15
009780;12.01.2021;04:57:30;Stop           ;04.12.2018;FEY;;LION;49;14500;7200;192;2;90;90;8400;3000;4060;4061;1;13009;26.64;30.74;31,5;BCS1388054;3;15
009780;12.01.2021;05:21:45;Cycle          ;04.12.2018;FEY;;LION;49;14500;7200;192;2;90;90;8400;3000;4065;4066;1;13010;26.84;28.54;30,4;BCS1388054;3;15
009780;13.01.2021;08:23:25;Stop           ;04.12.2018;FEY;;LION;49;14500;7200;224;4;96;100;8400;;4155;4157;1;13010;27.04;28.44;31,4;BCS1388054;3;15
009780;21.02.2021;13:43:19;Normalcharge  ;04.12.2018;FEY;;LION;49;14500;7200;192;4;46;48;8400;3000;3640;3641;1;12995;23.44;26.14;27,5;BCS1388054;1;14
009780;22.02.2021;17:08:49;Stop          ;04.12.2018;FEY;;LION;49;14500;7200;224;4;97;100;8400;;4148;4148;1;12994;25.94;28.24;30,0;BCS1388054;1;14
009780;06.04.2021;08:38:50;Normalcharge  ;04.12.2018;FEY;;LION;49;14500;7200;224;4;96;99;8400;;4128;4128;1;13010;20.74;24.44;28,1;BCS1388054;3;2
009780;06.04.2021;08:39:42;Stop           ;04.12.2018;FEY;;LION;49;14500;7200;224;4;96;99;8400;;4128;4128;1;13009;20.84;25.04;28,2;BCS1388054;3;2
009780;08.04.2021;07:58:01;Normalcharge  ;04.12.2018;FEY;;LION;49;14500;7200;224;4;96;99;8400;;4127;4127;1;13011;25.04;24.64;26,4;BCS1388054;3;2
009780;08.04.2021;07:59:40;Stop           ;04.12.2018;FEY;;LION;49;14500;7200;224;4;96;99;8400;;4127;4127;1;13009;25.04;25.84;26,8;BCS1388054;3;2
009780;08.04.2021;10:35:05;Normalcharge  ;04.12.2018;FEY;;LION;49;14500;7200;224;4;96;99;8400;;4127;4127;1;13010;25.34;24.94;28,1;BCS1388054;3;2
009780;08.04.2021;10:36:56;Stop           ;04.12.2018;FEY;;LION;49;14500;7200;224;4;96;99;8400;;4127;4127;1;13007;25.34;26.24;29,0;BCS1388054;3;2
009780;18.04.2021;08:33:50;Normalcharge  ;04.12.2018;FEY;;LION;49;14500;7200;224;4;96;99;8400;;4123;4123;1;13008;25.94;26.34;27,8;BCS1388054;3;2
009780;18.04.2021;08:33:58;Stop           ;04.12.2018;FEY;;LION;49;14500;7200;224;4;96;99;8400;;4123;4123;1;13008;25.94;26.44;27,9;BCS1388054;3;2
009780;04.08.2021;07:24:50;Normalcharge  ;04.12.2018;FEY;;LION;49;14500;7200;192;4;93;96;8400;;4093;4092;1;12998;30.14;30.44;31,6;BCS1388054;3;2
009780;04.08.2021;07:25:37;Stop           ;04.12.2018;FEY;;LION;49;14500;7200;192;4;93;96;8400;;4092;4092;1;12996;30.14;30.94;31,7;BCS1388054;3;2
009780;22.08.2021;11:37:13;Normalcharge  ;04.12.2018;FEY;;LION;49;14500;7200;192;4;93;96;8400;;4088;4088;1;13018;22.24;28.54;31,9;BCS1388054;7;15
009780;22.08.2021;11:37:48;Stop          ;04.12.2018;FEY;;LION;49;14500;7200;192;4;93;96;8400;;4088;4088;1;12988;22.34;28.74;31,9;BCS1388054;7;15
009780;14.10.2021;12:40:21;Normalcharge  ;04.12.2018;FEY;;LION;49;14500;7200;192;4;90;93;8400;3000;4040;4041;1;13031;23.34;27.14;28,1;BCS1388054;7;5
009780;14.10.2021;12:42:05;Stop          ;04.12.2018;FEY;;LION;49;14500;7200;128;4;90;93;8400;3000;4121;4090;1;12742;23.54;29.84;28,5;BCS1388054;7;5
009780;14.03.2022;10:33:51;Normalcharge  ;04.12.2018;FEY;;LION;49;14500;7200;192;5;30;31;8400;3000;3546;3548;1;13012;23.94;25.04;25,3;BCS1388054;5;16
009780;14.03.2022;10:38:12;Stop          ;04.12.2018;FEY;;LION;49;14500;7200;128;5;30;31;8400;3000;3649;3601;1;12691;24.14;30.24;28,1;BCS1388054;5;16
009780;17.05.2022;08:54:36;Normalcharge  ;04.12.2018;FEY;;LION;49;14500;7200;192;5;29;29;8400;3000;3534;3536;1;13023;28.64;30.34;31,0;BCS1388054;7;2
009780;17.05.2022;13:41:52;Stop          ;04.12.2018;FEY;;LION;49;14500;7200;128;5;88;90;8400;3000;4141;4094;1;12952;34.44;38.74;34,0;BCS1388054;7;2

File: 009782.txt
Serialnumber ; Date ; Time ; Action ; Date of Manufacture ; Manufacturer ; Battery Name ; Device-Chemistry ; Specification-Info ; Design-Capacity [mAh] ; Design-Voltage [mV] ; Battery Status ; Cycle Count ; SOC [%] ; Relativ SOC[%] ; Desired Voltage [mV]; Desired Current [mA]; Cell Voltage 1 [mV] ; Cell Voltage 2 [mV] ; Max_Error [%] ; Busvoltage[mV] ; Battery Temperature [°C] ; Charger Temperature [°C] ; Batterysystem ; Case ; PLace
009782;30.11.2020;09:42:55;Stop          ;04.12.2018;FEY;;LION;49;14500;7200;224;5;97;100;8400;;4154;4155;1;13023;27.84;29.14;31,7;BCS1388054;7;7
009782;07.02.2021;08:46:43;Normalcharge  ;04.12.2018;FEY;;LION;49;14500;7200;192;5;94;97;8400;;4101;4102;1;13000;23.94;25.44;29,2;BCS1388054;1;18
009782;07.02.2021;11:52:07;Stop          ;04.12.2018;FEY;;LION;49;14500;7200;192;5;94;97;8400;;4101;4101;1;12997;25.64;26.64;29,7;BCS1388054;1;18
009782;03.03.2021;08:17:46;Normalcharge  ;04.12.2018;FEY;;LION;49;14500;7200;192;5;61;64;8400;3000;3791;3791;1;13037;23.14;24.04;23,6;BCS1388054;7;5
009782;03.03.2021;10:54:05;Stop          ;04.12.2018;FEY;;LION;49;14500;7200;128;5;93;97;8400;3000;4180;4146;1;12711;29.94;31.64;31,4;BCS1388054;7;5
009782;03.03.2021;10:55:49;Normalcharge  ;04.12.2018;FEY;;LION;49;14500;7200;192;5;93;97;8400;3000;4107;4108;1;13031;29.84;30.04;30,6;BCS1388054;7;5
009782;03.03.2021;17:03:24;Stop          ;04.12.2018;FEY;;LION;49;14500;7200;224;5;97;100;8400;;4152;4152;1;13033;26.24;27.44;31,4;BCS1388054;7;5
009782;04.04.2021;11:50:28;Normalcharge  ;04.12.2018;FEY;;LION;49;14500;7200;192;6;53;54;8400;3000;3685;3685;1;13005;25.04;25.64;27,9;BCS1388054;3;4
009782;04.04.2021;11:51:43;Stop           ;04.12.2018;FEY;;LION;49;14500;7200;128;6;53;54;8400;3000;3774;3725;1;12791;25.14;28.44;28,6;BCS1388054;3;4
009782;05.04.2021;09:38:00;Ladung auf 60% ;04.12.2018;FEY;;LION;49;14500;7200;192;6;53;54;8400;3000;3687;3686;1;12996;25.04;26.24;26,3;BCS1388054;3;8
009782;05.04.2021;10:06:07;Stop           ;04.12.2018;FEY;;LION;49;14500;7200;192;6;58;60;8400;3000;3750;3748;1;12994;27.34;30.14;31,4;BCS1388054;3;8
009782;22.08.2021;11:08:13;Normalcharge  ;04.12.2018;FEY;;LION;49;14500;7200;192;6;54;56;8400;3000;3695;3694;1;13002;29.94;30.44;32,2;BCS1388054;6;11
009782;22.08.2021;11:08:46;Stop          ;04.12.2018;FEY;;LION;49;14500;7200;128;6;54;56;8400;3000;3730;3710;1;12793;29.94;31.54;32,5;BCS1388054;6;11
009782;25.08.2021;08:13:04;Normalcharge  ;04.12.2018;FEY;;LION;49;14500;7200;192;6;52;53;8400;3000;3675;3675;1;13019;30.44;31.04;32,4;BCS1388054;7;13
009782;25.08.2021;08:13:16;Stop          ;04.12.2018;FEY;;LION;49;14500;7200;192;6;52;53;8400;3000;3675;3675;1;13009;30.44;31.34;32,5;BCS1388054;7;13
009782;25.08.2021;08:14:41;Charge to 60% ;04.12.2018;FEY;;LION;49;14500;7200;192;6;52;53;8400;3000;3675;3675;1;13018;30.44;31.44;33,0;BCS1388054;7;13
009782;25.08.2021;08:37:46;Stop          ;04.12.2018;FEY;;LION;49;14500;7200;128;6;56;58;8400;3000;3815;3766;1;12736;32.34;41.34;36,1;BCS1388054;7;13
009782;25.08.2021;08:38:03;Charge to 60% ;04.12.2018;FEY;;LION;49;14500;7200;128;6;56;58;8400;3000;3735;3737;1;13018;32.44;40.44;36,1;BCS1388054;7;13
009782;25.08.2021;13:26:36;Stop          ;04.12.2018;FEY;;LION;49;14500;7200;192;6;58;60;8400;3000;3738;3738;1;13017;32.84;34.24;36,4;BCS1388054;7;13
009782;01.11.2021;09:52:10;Normalcharge  ;04.12.2018;FEY;;LION;49;14500;7200;2768;6;;;8400;3000;3052;3042;1;13012;24.34;25.04;26,4;BCS1388054;3;3
009782;01.11.2021;09:53:26;Stop           ;04.12.2018;FEY;;LION;49;14500;7200;144;6;;;8400;3000;3210;3152;1;12623;24.34;28.34;27,1;BCS1388054;3;3
009782;01.11.2021;10:02:09;Normalcharge  ;04.12.2018;FEY;;LION;49;14500;7200;720;6;;;8400;3000;3072;3062;1;13008;24.64;27.74;29,5;BCS1388054;3;3
009782;01.11.2021;10:03:20;Stop           ;04.12.2018;FEY;;LION;49;14500;7200;144;6;;;8400;3000;3231;3174;1;12622;24.74;30.24;29,5;BCS1388054;3;3
009782;01.11.2021;10:18:15;Normalcharge  ;04.12.2018;FEY;;LION;49;14500;7200;720;6;;;8400;3000;3094;3086;1;13009;25.14;26.74;28,2;BCS1388054;3;3
009782;01.11.2021;10:18:55;Stop           ;04.12.2018;FEY;;LION;49;14500;7200;144;6;;;8400;3000;3206;3160;1;12654;25.24;28.44;28,2;BCS1388054;3;3
009782;01.11.2021;10:27:50;Normalcharge  ;04.12.2018;FEY;;LION;49;14500;7200;720;6;;;8400;3000;3102;3094;1;13009;25.34;27.04;27,8;BCS1388054;3;3
009782;01.11.2021;10:29:05;Stop           ;04.12.2018;FEY;;LION;49;14500;7200;144;6;;;8400;3000;3257;3202;1;12586;25.44;30.04;28,5;BCS1388054;3;3
009782;01.11.2021;10:32:24;Ladung auf 60% ;04.12.2018;FEY;;LION;49;14500;7200;720;6;;;8400;3000;3127;3119;1;13008;25.44;28.04;29,7;BCS1388054;3;3
009782;01.11.2021;15:19:46;Stop           ;04.12.2018;FEY;;LION;49;14500;7200;192;6;56;60;8400;3000;3800;3800;1;13008;30.54;30.54;32,7;BCS1388054;3;3
009782;07.02.2022;08:50:57;Normalcharge  ;04.12.2018;FEY;;LION;49;14500;7200;192;6;56;59;8400;3000;3731;3731;1;12999;22.34;22.24;25,1;BCS1388054;4;11
009782;07.02.2022;13:19:09;Stop          ;04.12.2018;FEY;;LION;49;14500;7200;224;6;95;100;8400;;4159;4159;1;12995;26.84;26.14;29,7;BCS1388054;4;11

File: 009785.txt
Serialnumber ; Date ; Time ; Action ; Date of Manufacture ; Manufacturer ; Battery Name ; Device-Chemistry ; Specification-Info ; Design-Capacity [mAh] ; Design-Voltage [mV] ; Battery Status ; Cycle Count ; SOC [%] ; Relativ SOC[%] ; Desired Voltage [mV]; Desired Current [mA]; Cell Voltage 1 [mV] ; Cell Voltage 2 [mV] ; Max_Error [%] ; Busvoltage[mV] ; Battery Temperature [°C] ; Charger Temperature [°C] ; Batterysystem ; Case ; PLace
009785;01.12.2020;07:38:36;Cycle         ;04.12.2018;FEY;;LION;49;14500;7200;192;3;18;19;8400;3000;3447;3449;1;13008;25.54;25.74;28,8;BCS1388054;2;1
009785;02.12.2020;16:21:01;Stop          ;04.12.2018;FEY;;LION;49;14500;7200;224;4;98;100;8400;;4157;4156;1;13002;26.64;28.34;29,3;BCS1388054;2;1
009785;03.03.2021;08:17:08;Normalcharge  ;04.12.2018;FEY;;LION;49;14500;7200;192;4;95;97;8400;;4105;4105;1;13008;23.14;22.54;23,5;BCS1388054;1;10
009785;04.03.2021;07:53:51;Stop          ;04.12.2018;FEY;;LION;49;14500;7200;192;4;94;97;8400;;4104;4104;1;13000;26.04;26.64;31,6;BCS1388054;1;10
009785;04.04.2021;11:50:22;Normalcharge  ;04.12.2018;FEY;;LION;49;14500;7200;192;4;94;97;8400;;4094;4094;1;13009;25.14;25.84;27,9;BCS1388054;4;13
009785;04.04.2021;11:51:36;Stop          ;04.12.2018;FEY;;LION;49;14500;7200;192;4;94;97;8400;;4094;4094;1;12743;25.14;26.14;28,6;BCS1388054;4;13
009785;22.08.2021;11:37:30;Normalcharge  ;04.12.2018;FEY;;LION;49;14500;7200;192;4;91;93;8400;3000;4047;4048;1;12998;21.54;28.04;31,9;BCS1388054;3;7
009785;22.08.2021;11:38:19;Stop           ;04.12.2018;FEY;;LION;49;14500;7200;128;4;91;93;8400;3000;4116;4087;1;12570;21.74;29.94;32,1;BCS1388054;3;7
009785;12.10.2021;12:58:56;Normalcharge  ;04.12.2018;FEY;;LION;49;14500;7200;192;4;87;90;8400;3000;4030;4032;1;12993;23.54;26.74;28,5;BCS1388054;6;7
009785;12.10.2021;12:59:25;Stop          ;04.12.2018;FEY;;LION;49;14500;7200;192;4;87;90;8400;3000;4030;4031;1;12968;23.64;27.74;28,6;BCS1388054;6;7
009785;14.10.2021;12:40:08;Normalcharge  ;04.12.2018;FEY;;LION;49;14500;7200;192;4;85;87;8400;3000;3999;4000;1;13009;25.04;26.14;27,9;BCS1388054;4;13
009785;14.10.2021;12:41:44;Stop          ;04.12.2018;FEY;;LION;49;14500;7200;128;4;85;87;8400;3000;4090;4048;1;12669;25.24;29.94;28,4;BCS1388054;4;13
009785;14.03.2022;12:14:30;Normalcharge  ;04.12.2018;FEY;;LION;49;14500;7200;192;4;80;82;8400;3000;3944;3945;1;13011;24.44;25.64;27,5;BCS1388054;4;1
009785;14.03.2022;12:18:42;Stop          ;04.12.2018;FEY;;LION;49;14500;7200;128;4;81;83;8400;3000;4056;4005;1;12828;24.64;30.54;29,5;BCS1388054;4;1

File: 009787.txt
Serialnumber ; Date ; Time ; Action ; Date of Manufacture ; Manufacturer ; Battery Name ; Device-Chemistry ; Specification-Info ; Design-Capacity [mAh] ; Design-Voltage [mV] ; Battery Status ; Cycle Count ; SOC [%] ; Relativ SOC[%] ; Desired Voltage [mV]; Desired Current [mA]; Cell Voltage 1 [mV] ; Cell Voltage 2 [mV] ; Max_Error [%] ; Busvoltage[mV] ; Battery Temperature [°C] ; Charger Temperature [°C] ; Batterysystem ; Case ; PLace
009787;07.12.2020;04:14:17;Cycle         ;04.12.2018;FEY;;LION;49;14500;7200;224;3;99;99;8400;;4129;4129;1;13007;25.54;26.74;30,3;BCS1388054;1;13
009787;08.12.2020;16:19:38;Stop          ;04.12.2018;FEY;;LION;49;14500;7200;224;4;97;100;8400;;4152;4151;1;13008;27.44;28.14;31,9;BCS1388054;1;13
009787;03.03.2021;08:17:17;Normalcharge  ;04.12.2018;FEY;;LION;49;14500;7200;192;4;93;96;8400;;4096;4095;1;13014;23.04;23.84;23,5;BCS1388054;2;3
009787;04.03.2021;07:53:45;Stop          ;04.12.2018;FEY;;LION;49;14500;7200;192;4;93;96;8400;;4095;4094;1;13006;26.34;28.84;31,6;BCS1388054;2;3
009787;04.04.2021;11:50:10;Normalcharge  ;04.12.2018;FEY;;LION;49;14500;7200;192;5;17;18;8400;3000;3433;3430;1;13017;24.74;25.94;27,8;BCS1388054;5;18
009787;04.04.2021;11:51:30;Stop          ;04.12.2018;FEY;;LION;49;14500;7200;128;5;17;18;8400;3000;3530;3481;1;12665;24.84;29.14;28,5;BCS1388054;5;18
009787;05.04.2021;09:38:17;Charge to 60% ;04.12.2018;FEY;;LION;49;14500;7200;192;5;17;18;8400;3000;3437;3434;1;13012;24.94;26.14;26,4;BCS1388054;5;16
009787;05.04.2021;10:34:50;Charge to 60% ;04.12.2018;FEY;;LION;49;14500;7200;128;5;29;30;8400;3000;3653;3603;1;12910;28.44;34.04;32,4;BCS1388054;5;16
009787;05.04.2021;13:16:09;Stop          ;04.12.2018;FEY;;LION;49;14500;7200;192;5;58;60;8400;3000;3770;3764;1;13007;29.04;29.64;32,2;BCS1388054;5;16
009787;22.08.2021;11:37:30;Normalcharge  ;04.12.2018;FEY;;LION;49;14500;7200;192;5;54;56;8400;3000;3702;3702;1;12996;21.44;27.84;31,9;BCS1388054;3;2
009787;22.08.2021;11:38:19;Stop           ;04.12.2018;FEY;;LION;49;14500;7200;128;5;54;56;8400;3000;3790;3742;1;12578;21.64;30.14;32,1;BCS1388054;3;2
009787;25.08.2021;08:15:15;Ladung auf 60% ;04.12.2018;FEY;;LION;49;14500;7200;192;5;54;56;8400;3000;3705;3704;1;12994;30.34;31.94;33,4;BCS1388054;3;2
009787;25.08.2021;08:40:44;Stop           ;04.12.2018;FEY;;LION;49;14500;7200;192;5;58;60;8400;3000;3763;3760;1;12994;31.94;34.54;36,1;BCS1388054;3;2
009787;01.11.2021;09:52:01;Normalcharge  ;04.12.2018;FEY;;LION;49;14500;7200;192;5;56;57;8400;3000;3721;3720;1;13019;25.64;26.14;26,3;BCS1388054;5;18
009787;01.11.2021;09:53:41;Stop          ;04.12.2018;FEY;;LION;49;14500;7200;128;5;56;58;8400;3000;3815;3768;1;12582;25.74;30.14;27,3;BCS1388054;5;18
009787;01.11.2021;10:02:19;Normalcharge  ;04.12.2018;FEY;;LION;49;14500;7200;192;5;56;58;8400;3000;3726;3725;1;13012;25.94;27.64;29,5;BCS1388054;5;18
009787;01.11.2021;10:03:11;Stop          ;04.12.2018;FEY;;LION;49;14500;7200;128;5;56;58;8400;3000;3812;3765;1;12579;25.94;29.84;29,3;BCS1388054;5;18
009787;01.11.2021;10:27:35;Normalcharge  ;04.12.2018;FEY;;LION;49;14500;7200;192;5;56;58;8400;3000;3728;3727;1;13016;26.14;26.94;27,8;BCS1388054;5;18
009787;01.11.2021;10:29:14;Stop          ;04.12.2018;FEY;;LION;49;14500;7200;128;5;56;58;8400;3000;3822;3773;1;12577;26.24;30.94;28,6;BCS1388054;5;18
009787;01.11.2021;10:32:33;Charge to 60% ;04.12.2018;FEY;;LION;49;14500;7200;192;5;56;58;8400;3000;3733;3732;1;13018;26.24;28.34;29,9;BCS1388054;5;18
009787;01.11.2021;11:11:47;Stop          ;04.12.2018;FEY;;LION;49;14500;7200;192;5;58;60;8400;3000;3759;3757;1;13018;27.64;29.54;32,5;BCS1388054;5;18
009787;09.02.2022;08:16:53;Normalcharge  ;04.12.2018;FEY;;LION;49;14500;7200;192;5;53;54;8400;3000;3685;3684;1;12998;22.24;22.24;23,1;BCS1388054;1;11
009787;09.02.2022;13:56:48;Stop          ;04.12.2018;FEY;;LION;49;14500;7200;224;5;98;100;8400;;4155;4157;1;12958;24.94;25.14;29,9;BCS1388054;1;11
009787;14.03.2022;12:14:36;Normalcharge  ;04.12.2018;FEY;;LION;49;14500;7200;224;5;96;99;8400;;4129;4130;1;13003;24.34;25.74;27,7;BCS1388054;3;1
009787;14.03.2022;12:18:51;Stop           ;04.12.2018;FEY;;LION;49;14500;7200;224;5;96;99;8400;;4130;4130;1;12970;24.44;26.74;29,5;BCS1388054;3;1