Folder: Battery_sort_V2/reader/Batterieverzeichnis (part 7)

File: 009709.txt
Serialnumber ; Date ; Time ; Action ; Date of Manufacture ; Manufacturer ; Battery Name ; Device-Chemistry ; Specification-Info ; Design-Capacity [mAh] ; Design-Voltage [mV] ; Battery Status ; Cycle Count ; SOC [%] ; Relativ SOC[%] ; Desired Voltage [mV]; Desired Current [mA]; Cell Voltage 1 [mV] ; Cell Voltage 2 [mV] ; Max_Error [%] ; Busvoltage[mV] ; Battery Temperature [°C] ; Charger Temperature [°C] ; Batterysystem ; Case ; PLace
009709;07.12.2020;04:14:32;Cycle         ;04.12.2018;FEY;;LION;49;14500;7200;192;4;96;98;8400;;4143;4142;1;13010;26.04;28.24;30,3;BCS1388054;5;5
009709;08.12.2020;16:20:01;Stop          ;04.12.2018;FEY;;LION;49;14500;7200;192;4;96;98;8400;;4141;4140;1;13010;28.04;29.64;31,7;BCS1388054;5;5
009709;12.01.2021;04:17:47;Charge to 90% ;04.12.2018;FEY;;LION;49;14500;7200;192;4;95;97;8400;;4126;4125;1;13030;23.24;23.24;23,8;BCS1388054;7;13
009709;12.01.2021;04:57:20;Stop          ;04.12.2018;FEY;;LION;49;14500;7200;192;4;90;90;8400;3000;4060;4059;1;13025;26.84;29.44;31,5;BCS1388054;7;13
009709;12.01.2021;05:22:01;Cycle         ;04.12.2018;FEY;;LION;49;14500;7200;192;4;90;90;8400;3000;4065;4065;1;13026;27.04;27.84;30,4;BCS1388054;7;13
009709;13.01.2021;08:19:29;Stop          ;04.12.2018;FEY;;LION;49;14500;7200;224;5;97;100;8400;;4155;4154;1;13027;26.94;27.64;30,7;BCS1388054;7;13
009709;22.02.2021;17:31:46;Normalcharge  ;04.12.2018;FEY;;LION;49;14500;7200;192;5;71;73;8400;3000;3880;3880;1;12995;26.64;28.24;31,6;BCS1388054;1;15
009709;22.02.2021;23:06:28;Stop          ;04.12.2018;FEY;;LION;49;14500;7200;224;5;97;100;8400;;4152;4151;1;12997;27.04;29.44;30,6;BCS1388054;1;15
009709;04.04.2021;11:50:33;Normalcharge  ;04.12.2018;FEY;;LION;49;14500;7200;192;6;58;60;8400;3000;3751;3750;1;13003;25.24;26.24;27,9;BCS1388054;2;14
009709;04.04.2021;11:51:48;Stop          ;04.12.2018;FEY;;LION;49;14500;7200;128;6;58;60;8400;3000;3844;3796;1;12588;25.24;29.44;28,6;BCS1388054;2;14
009709;05.04.2021;09:37:37;Charge to 60% ;04.12.2018;FEY;;LION;49;14500;7200;192;6;58;60;8400;3000;3755;3753;1;13009;25.44;26.64;26,0;BCS1388054;1;6
009709;05.04.2021;10:01:53;Stop          ;04.12.2018;FEY;;LION;49;14500;7200;192;6;58;60;8400;3000;3754;3753;1;13004;26.14;28.14;31,2;BCS1388054;1;6
009709;22.08.2021;11:08:18;Normalcharge  ;04.12.2018;FEY;;LION;49;14500;7200;192;6;55;57;8400;3000;3708;3708;1;13021;30.14;29.94;32,2;BCS1388054;7;6
009709;22.08.2021;11:08:51;Stop          ;04.12.2018;FEY;;LION;49;14500;7200;128;6;55;57;8400;3000;3739;3720;1;12837;30.14;31.04;32,6;BCS1388054;7;6

File: 009713.txt
Serialnumber ; Date ; Time ; Action ; Date of Manufacture ; Manufacturer ; Battery Name ; Device-Chemistry ; Specification-Info ; Design-Capacity [mAh] ; Design-Voltage [mV] ; Battery Status ; Cycle Count ; SOC [%] ; Relativ SOC[%] ; Desired Voltage [mV]; Desired Current [mA]; Cell Voltage 1 [mV] ; Cell Voltage 2 [mV] ; Max_Error [%] ; Busvoltage[mV] ; Battery Temperature [°C] ; Charger Temperature [°C] ; Batterysystem ; Case ; PLace
009713;02.12.2020;11:43:08;Cycle         ;04.12.2018;FEY;;LION;49;14500;7200;192;2;81;80;8400;3000;3939;3939;1;13003;26.24;28.54;28,4;BCS1388054;1;3
009713;03.12.2020;15:31:47;Stop          ;04.12.2018;FEY;;LION;49;14500;7200;224;3;97;100;8400;;4155;4157;1;13003;27.04;29.04;28,8;BCS1388054;1;3
009713;03.12.2020;17:28:02;Normalcharge  ;04.12.2018;FEY;;LION;49;14500;7200;224;3;97;100;8400;;4154;4156;1;13003;26.94;29.04;28,9;BCS1388054;1;3
009713;03.03.2021;08:17:29;Normalcharge  ;04.12.2018;FEY;;LION;49;14500;7200;192;3;88;90;8400;3000;4043;4044;1;13021;23.44;23.24;23,5;BCS1388054;4;4
009713;03.03.2021;10:32:46;Stop          ;04.12.2018;FEY;;LION;49;14500;7200;224;3;98;100;8400;;4155;4157;1;13014;28.34;28.84;32,0;BCS1388054;4;4
009713;04.04.2021;11:50:33;Normalcharge  ;04.12.2018;FEY;;LION;49;14500;7200;2768;4;;;8400;3000;3111;3089;1;13007;25.34;27.44;27,9;BCS1388054;2;3
009713;04.04.2021;11:51:48;Stop          ;04.12.2018;FEY;;LION;49;14500;7200;2768;4;;;8400;3000;3111;3089;1;12615;25.34;29.14;28,6;BCS1388054;2;3
009713;05.04.2021;09:38:25;Charge to 60% ;04.12.2018;FEY;;LION;49;14500;7200;2768;4;;;8400;3000;3117;3096;1;13013;25.34;26.04;26,6;BCS1388054;6;3
009713;05.04.2021;13:29:53;Stop          ;04.12.2018;FEY;;LION;49;14500;7200;128;4;46;49;8400;3000;3768;3718;1;12933;29.94;33.84;31,9;BCS1388054;6;3
009713;06.04.2021;07:40:17;Charge to 60% ;04.12.2018;FEY;;LION;49;14500;7200;192;4;48;50;8400;3000;3667;3666;1;13016;25.24;25.04;25,1;BCS1388054;6;3
009713;06.04.2021;08:24:55;Stop          ;04.12.2018;FEY;;LION;49;14500;7200;128;4;57;60;8400;3000;3859;3809;1;13011;27.24;31.74;27,8;BCS1388054;6;3
009713;08.04.2021;10:36:43;Normalcharge  ;04.12.2018;FEY;;LION;49;14500;7200;192;4;;;8400;3000;3750;3745;;13032;-273.16;26.94;28,9;BCS1388054;7;8
009713;08.04.2021;10:37:15;Stop          ;04.12.2018;FEY;;LION;49;14500;7200;128;4;58;60;8400;3000;3794;3764;1;12961;25.54;28.04;29,2;BCS1388054;7;8
009713;18.04.2021;08:34:46;Normalcharge  ;04.12.2018;FEY;;LION;49;14500;7200;192;4;57;59;8400;3000;3739;3736;1;13031;26.34;27.64;28,2;BCS1388054;7;8
009713;18.04.2021;08:34:54;Stop          ;04.12.2018;FEY;;LION;49;14500;7200;192;4;57;59;8400;3000;3739;3736;1;13029;26.34;27.84;28,4;BCS1388054;7;8
009713;04.08.2021;07:24:29;Normalcharge  ;04.12.2018;FEY;;LION;49;14500;7200;192;4;53;55;8400;3000;3703;3703;1;13027;30.34;31.04;31,5;BCS1388054;7;8
009713;04.08.2021;07:25:08;Stop          ;04.12.2018;FEY;;LION;49;14500;7200;128;4;53;55;8400;3000;3735;3715;1;12965;30.34;32.44;31,6;BCS1388054;7;8
009713;25.08.2021;08:15:19;Charge to 60% ;04.12.2018;FEY;;LION;49;14500;7200;192;4;53;55;8400;3000;3699;3698;1;12985;30.64;31.64;33,5;BCS1388054;2;13
009713;25.08.2021;10:43:17;Stop          ;04.12.2018;FEY;;LION;49;14500;7200;192;4;57;60;8400;3000;3752;3749;1;12984;33.14;35.34;36,4;BCS1388054;2;13
009713;01.11.2021;09:51:48;Normalcharge  ;04.12.2018;FEY;;LION;49;14500;7200;192;4;55;57;8400;3000;3718;3717;1;13026;26.24;25.54;26,3;BCS1388054;7;11
009713;01.11.2021;09:53:51;Stop          ;04.12.2018;FEY;;LION;49;14500;7200;128;4;55;57;8400;3000;3815;3764;1;12660;26.34;29.14;27,4;BCS1388054;7;11
009713;01.11.2021;10:02:29;Normalcharge  ;04.12.2018;FEY;;LION;49;14500;7200;192;4;55;57;8400;3000;3723;3722;1;13020;26.44;26.94;29,5;BCS1388054;7;11
009713;01.11.2021;10:03:04;Stop          ;04.12.2018;FEY;;LION;49;14500;7200;128;4;55;57;8400;3000;3786;3749;1;12694;26.44;28.04;29,3;BCS1388054;7;11
009713;01.11.2021;10:27:23;Normalcharge  ;04.12.2018;FEY;;LION;49;14500;7200;192;4;55;57;8400;3000;3724;3722;1;13023;26.64;26.44;27,7;BCS1388054;7;11
009713;01.11.2021;10:29:22;Stop          ;04.12.2018;FEY;;LION;49;14500;7200;128;4;56;58;8400;3000;3820;3770;1;12660;26.74;29.74;28,6;BCS1388054;7;11

File: 009714.txt
Serialnumber ; Date ; Time ; Action ; Date of Manufacture ; Manufacturer ; Battery Name ; Device-Chemistry ; Specification-Info ; Design-Capacity [mAh] ; Design-Voltage [mV] ; Battery Status ; Cycle Count ; SOC [%] ; Relativ SOC[%] ; Desired Voltage [mV]; Desired Current [mA]; Cell Voltage 1 [mV] ; Cell Voltage 2 [mV] ; Max_Error [%] ; Busvoltage[mV] ; Battery Temperature [°C] ; Charger Temperature [°C] ; Batterysystem ; Case ; PLace
009714;07.02.2021;08:46:59;Normalcharge  ;04.12.2018;FEY;;LION;49;14500;7200;192;2;92;94;8400;3000;4075;4075;1;12993;23.34;26.84;29,2;BCS1388054;4;2
009714;07.02.2021;11:52:20;Stop          ;04.12.2018;FEY;;LION;49;14500;7200;224;2;99;100;8400;;4150;4152;1;12993;25.74;28.14;29,7;BCS1388054;4;2
009714;03.03.2021;08:17:29;Normalcharge  ;04.12.2018;FEY;;LION;49;14500;7200;192;3;85;88;8400;3000;4005;4006;1;13016;23.04;24.04;23,5;BCS1388054;4;10
009714;03.03.2021;10:32:46;Stop          ;04.12.2018;FEY;;LION;49;14500;7200;224;3;97;100;8400;;4157;4158;1;13011;28.04;29.54;32,0;BCS1388054;4;10
009714;04.04.2021;11:50:10;Normalcharge  ;04.12.2018;FEY;;LION;49;14500;7200;192;3;95;98;8400;;4114;4115;1;13016;24.74;25.54;27,8;BCS1388054;5;17
009714;04.04.2021;11:51:30;Stop          ;04.12.2018;FEY;;LION;49;14500;7200;192;3;95;98;8400;;4115;4115;1;12677;24.74;25.94;28,5;BCS1388054;5;17
009714;22.08.2021;11:07:55;Normalcharge  ;04.12.2018;FEY;;LION;49;14500;7200;192;3;82;84;8400;3000;3959;3959;1;12993;22.14;30.94;32,0;BCS1388054;2;10
009714;22.08.2021;11:08:28;Stop          ;04.12.2018;FEY;;LION;49;14500;7200;128;3;82;84;8400;3000;4017;3986;1;12588;22.24;31.94;32,4;BCS1388054;2;10

File: 009715.txt
Serialnumber ; Date ; Time ; Action ; Date of Manufacture ; Manufacturer ; Battery Name ; Device-Chemistry ; Specification-Info ; Design-Capacity [mAh] ; Design-Voltage [mV] ; Battery Status ; Cycle Count ; SOC [%] ; Relativ SOC[%] ; Desired Voltage [mV]; Desired Current [mA]; Cell Voltage 1 [mV] ; Cell Voltage 2 [mV] ; Max_Error [%] ; Busvoltage[mV] ; Battery Temperature [°C] ; Charger Temperature [°C] ; Batterysystem ; Case ; PLace
009715;30.11.2020;09:42:55;Stop          ;04.12.2018;FEY;;LION;49;14500;7200;16576;3;94;95;;;4101;4101;1;13023;27.64;28.94;31,7;BCS1388054;7;10
009715;12.01.2021;04:16:00;Charge to 90% ;04.12.2018;FEY;;LION;49;14500;7200;16576;3;94;95;;;4090;4090;1;13015;23.04;17.24;23,0;BCS1388054;1;16
009715;12.01.2021;04:16:03;Stop          ;04.12.2018;FEY;;LION;49;14500;7200;16576;3;94;95;;;4090;4090;1;13017;23.04;22.54;23,0;BCS1388054;1;16
009715;12.01.2021;04:17:15;Charge to 90% ;04.12.2018;FEY;;LION;49;14500;7200;16576;3;94;95;;;4090;4090;1;13015;23.04;23.34;23,5;BCS1388054;1;16
009715;12.01.2021;04:55:18;Stop          ;04.12.2018;FEY;;LION;49;14500;7200;192;3;90;90;8400;3000;4045;4045;1;13012;26.24;29.14;31,7;BCS1388054;1;16
009715;12.01.2021;05:21:33;Cycle         ;04.12.2018;FEY;;LION;49;14500;7200;192;3;90;90;8400;3000;4047;4047;1;13012;26.44;27.44;30,6;BCS1388054;1;16
009715;13.01.2021;08:18:34;Stop          ;04.12.2018;FEY;;LION;49;14500;7200;224;5;97;100;8400;;4155;4156;1;13013;26.44;27.34;30,7;BCS1388054;1;16
009715;21.02.2021;13:43:49;Normalcharge  ;04.12.2018;FEY;;LION;49;14500;7200;192;5;66;68;8400;3000;3837;3837;1;13011;23.04;24.14;27,7;BCS1388054;3;13
009715;21.02.2021;20:44:52;Stop           ;04.12.2018;FEY;;LION;49;14500;7200;224;5;97;100;8400;;4151;4152;1;13004;26.74;28.94;31,2;BCS1388054;3;13
009715;04.04.2021;11:50:39;Normalcharge  ;04.12.2018;FEY;;LION;49;14500;7200;192;6;51;53;8400;3000;3678;3678;1;12992;24.84;26.64;28,1;BCS1388054;1;9
009715;04.04.2021;11:51:54;Stop          ;04.12.2018;FEY;;LION;49;14500;7200;128;6;51;53;8400;3000;3767;3719;1;12547;24.94;29.34;28,8;BCS1388054;1;9
009715;05.04.2021;09:38:11;Charge to 60% ;04.12.2018;FEY;;LION;49;14500;7200;192;6;51;53;8400;3000;3680;3680;1;13011;25.14;25.64;26,3;BCS1388054;4;13
009715;05.04.2021;10:13:52;Stop          ;04.12.2018;FEY;;LION;49;14500;7200;192;6;57;60;8400;3000;3751;3751;1;13007;27.94;30.54;32,1;BCS1388054;4;13
009715;22.08.2021;11:37:30;Normalcharge  ;04.12.2018;FEY;;LION;49;14500;7200;192;6;54;56;8400;3000;3692;3692;1;13004;21.04;27.84;31,9;BCS1388054;3;17
009715;22.08.2021;11:38:19;Stop           ;04.12.2018;FEY;;LION;49;14500;7200;128;6;54;56;8400;3000;3780;3733;1;12556;21.24;30.04;32,1;BCS1388054;3;17
009715;25.08.2021;08:15:15;Ladung auf 60% ;04.12.2018;FEY;;LION;49;14500;7200;192;6;54;56;8400;3000;3694;3694;1;13002;30.44;31.14;33,4;BCS1388054;3;17
009715;25.08.2021;08:40:44;Stop           ;04.12.2018;FEY;;LION;49;14500;7200;192;6;58;60;8400;3000;3741;3742;1;13000;32.14;34.74;36,1;BCS1388054;3;17
009715;01.11.2021;09:51:56;Normalcharge  ;04.12.2018;FEY;;LION;49;14500;7200;192;6;54;56;8400;3000;3710;3710;1;13002;25.84;25.44;26,3;BCS1388054;6;12
009715;01.11.2021;09:53:46;Stop          ;04.12.2018;FEY;;LION;49;14500;7200;128;6;54;56;8400;3000;3803;3756;1;12610;25.84;27.94;27,3;BCS1388054;6;12
009715;01.11.2021;10:02:24;Normalcharge  ;04.12.2018;FEY;;LION;49;14500;7200;192;6;55;56;8400;3000;3714;3714;1;12996;26.14;26.44;29,5;BCS1388054;6;12
009715;01.11.2021;10:03:07;Stop          ;04.12.2018;FEY;;LION;49;14500;7200;128;6;55;56;8400;3000;3800;3752;1;12606;26.14;27.74;29,3;BCS1388054;6;12
009715;01.11.2021;10:27:30;Normalcharge  ;04.12.2018;FEY;;LION;49;14500;7200;192;6;55;56;8400;3000;3715;3715;1;12999;26.34;26.24;27,8;BCS1388054;6;12
009715;01.11.2021;10:29:18;Stop          ;04.12.2018;FEY;;LION;49;14500;7200;128;6;55;57;8400;3000;3808;3761;1;12609;26.44;28.64;28,6;BCS1388054;6;12

File: 009720.txt
Serialnumber ; Date ; Time ; Action ; Date of Manufacture ; Manufacturer ; Battery Name ; Device-Chemistry ; Specification-Info ; Design-Capacity [mAh] ; Design-Voltage [mV] ; Battery Status ; Cycle Count ; SOC [%] ; Relativ SOC[%] ; Desired Voltage [mV]; Desired Current [mA]; Cell Voltage 1 [mV] ; Cell Voltage 2 [mV] ; Max_Error [%] ; Busvoltage[mV] ; Battery Temperature [°C] ; Charger Temperature [°C] ; Batterysystem ; Case ; PLace
009720;07.12.2020;04:14:21;Cycle         ;04.12.2018;FEY;;LION;49;14500;7200;224;1;98;99;8400;;4159;4160;1;12983;26.04;27.74;30,3;BCS1388054;2;18
009720;08.12.2020;16:19:44;Stop          ;04.12.2018;FEY;;LION;49;14500;7200;224;2;98;100;8400;;4153;4153;1;12983;27.84;29.34;31,9;BCS1388054;2;18
009720;03.03.2021;08:17:08;Normalcharge  ;04.12.2018;FEY;;LION;49;14500;7200;192;2;95;98;8400;;4115;4116;1;13012;23.44;22.74;23,5;BCS1388054;1;7
009720;04.03.2021;07:53:51;Stop          ;04.12.2018;FEY;;LION;49;14500;7200;192;2;95;98;8400;;4115;4115;1;13006;26.54;27.54;31,6;BCS1388054;1;7
009720;04.04.2021;11:50:33;Normalcharge  ;04.12.2018;FEY;;LION;49;14500;7200;192;3;51;53;8400;3000;3674;3673;1;13002;25.24;26.74;27,9;BCS1388054;2;17
009720;04.04.2021;11:51:48;Stop          ;04.12.2018;FEY;;LION;49;14500;7200;128;3;51;53;8400;3000;3761;3712;1;12571;25.34;29.94;28,6;BCS1388054;2;17
009720;05.04.2021;09:38:11;Charge to 60% ;04.12.2018;FEY;;LION;49;14500;7200;192;3;51;53;8400;3000;3676;3675;1;13002;25.34;25.64;26,3;BCS1388054;4;14
009720;05.04.2021;10:13:52;Stop          ;04.12.2018;FEY;;LION;49;14500;7200;192;3;58;60;8400;3000;3752;3755;1;12999;28.14;30.74;32,1;BCS1388054;4;14
009720;22.08.2021;11:07:50;Normalcharge  ;04.12.2018;FEY;;LION;49;14500;7200;192;3;44;45;8400;3000;3619;3618;1;12986;22.94;30.64;32,0;BCS1388054;1;1
009720;22.08.2021;11:08:23;Stop          ;04.12.2018;FEY;;LION;49;14500;7200;128;3;44;45;8400;3000;3670;3640;1;12643;23.04;31.54;32,4;BCS1388054;1;1

File: 009722.txt
Serialnumber ; Date ; Time ; Action ; Date of Manufacture ; Manufacturer ; Battery Name ; Device-Chemistry ; Specification-Info ; Design-Capacity [mAh] ; Design-Voltage [mV] ; Battery Status ; Cycle Count ; SOC [%] ; Relativ SOC[%] ; Desired Voltage [mV]; Desired Current [mA]; Cell Voltage 1 [mV] ; Cell Voltage 2 [mV] ; Max_Error [%] ; Busvoltage[mV] ; Battery Temperature [°C] ; Charger Temperature [°C] ; Batterysystem ; Case ; PLace
009722;07.12.2020;04:14:28;Cycle         ;04.12.2018;FEY;;LION;49;14500;7200;192;2;97;98;8400;;4144;4145;1;12992;25.74;28.84;30,3;BCS1388054;4;2
009722;08.12.2020;16:19:56;Stop          ;04.12.2018;FEY;;LION;49;14500;7200;192;2;97;98;8400;;4142;4143;1;12991;27.94;30.34;31,9;BCS1388054;4;2
009722;12.01.2021;04:17:47;Charge to 90% ;04.12.2018;FEY;;LION;49;14500;7200;192;2;96;97;8400;;4127;4128;1;13024;23.14;23.84;23,8;BCS1388054;7;12
009722;12.01.2021;04:57:20;Stop          ;04.12.2018;FEY;;LION;49;14500;7200;192;2;90;90;8400;3000;4061;4061;1;13019;27.24;27.74;31,5;BCS1388054;7;12
009722;12.01.2021;05:22:01;Cycle         ;04.12.2018;FEY;;LION;49;14500;7200;192;2;90;90;8400;3000;4065;4065;1;13019;26.74;26.54;30,4;BCS1388054;7;12
009722;13.01.2021;08:19:29;Stop          ;04.12.2018;FEY;;LION;49;14500;7200;224;4;97;100;8400;;4155;4156;1;13019;26.34;26.94;30,7;BCS1388054;7;12
009722;21.02.2021;13:43:19;Normalcharge  ;04.12.2018;FEY;;LION;49;14500;7200;192;4;47;49;8400;3000;3648;3649;1;12995;23.74;25.04;27,5;BCS1388054;1;4
009722;22.02.2021;17:08:49;Stop          ;04.12.2018;FEY;;LION;49;14500;7200;224;4;97;100;8400;;4147;4148;1;12995;26.24;26.64;30,0;BCS1388054;1;4
009722;06.04.2021;08:39:16;Normalcharge  ;04.12.2018;FEY;;LION;49;14500;7200;224;4;96;99;8400;;4127;4127;1;13005;21.44;25.64;28,1;BCS1388054;6;9
009722;06.04.2021;08:40:03;Stop          ;04.12.2018;FEY;;LION;49;14500;7200;224;4;96;99;8400;;4126;4127;1;12984;21.54;25.74;28,5;BCS1388054;6;9
009722;08.04.2021;07:58:44;Normalcharge  ;04.12.2018;FEY;;LION;49;14500;7200;224;4;96;99;8400;;4126;4127;1;13009;25.34;24.54;26,4;BCS1388054;6;9
009722;08.04.2021;07:59:23;Stop          ;04.12.2018;FEY;;LION;49;14500;7200;224;4;96;99;8400;;4126;4126;1;13009;25.34;25.74;26,7;BCS1388054;6;9
009722;08.04.2021;10:36:16;Normalcharge  ;04.12.2018;FEY;;LION;49;14500;7200;224;4;96;99;8400;;4126;4127;1;13007;25.54;26.34;28,6;BCS1388054;6;9
009722;08.04.2021;10:37:11;Stop          ;04.12.2018;FEY;;LION;49;14500;7200;224;4;96;99;8400;;4126;4127;1;12987;25.54;26.74;29,2;BCS1388054;6;9
009722;18.04.2021;08:34:33;Normalcharge  ;04.12.2018;FEY;;LION;49;14500;7200;224;4;96;99;8400;;4123;4123;1;13005;26.24;27.24;28,2;BCS1388054;6;9
009722;18.04.2021;08:34:41;Stop          ;04.12.2018;FEY;;LION;49;14500;7200;224;4;96;99;8400;;4122;4123;1;13004;26.24;27.24;28,2;BCS1388054;6;9
009722;04.08.2021;07:24:35;Normalcharge  ;04.12.2018;FEY;;LION;49;14500;7200;192;4;94;96;8400;;4091;4091;1;13002;30.24;30.74;31,5;BCS1388054;6;9
009722;04.08.2021;07:25:17;Stop          ;04.12.2018;FEY;;LION;49;14500;7200;192;4;94;96;8400;;4091;4091;1;12985;30.24;31.04;31,6;BCS1388054;6;9
009722;22.08.2021;11:08:00;Normalcharge  ;04.12.2018;FEY;;LION;49;14500;7200;192;4;94;96;8400;;4086;4086;1;12999;22.44;28.64;32,1;BCS1388054;3;16
009722;22.08.2021;11:08:34;Stop           ;04.12.2018;FEY;;LION;49;14500;7200;192;4;94;96;8400;;4086;4086;1;12702;22.54;28.64;32,4;BCS1388054;3;16

File: 009730.txt
Serialnumber ; Date ; Time ; Action ; Date of Manufacture ; Manufacturer ; Battery Name ; Device-Chemistry ; Specification-Info ; Design-Capacity [mAh] ; Design-Voltage [mV] ; Battery Status ; Cycle Count ; SOC [%] ; Relativ SOC[%] ; Desired Voltage [mV]; Desired Current [mA]; Cell Voltage 1 [mV] ; Cell Voltage 2 [mV] ; Max_Error [%] ; Busvoltage[mV] ; Battery Temperature [°C] ; Charger Temperature [°C] ; Batterysystem ; Case ; PLace
009730;07.02.2021;08:47:00;Normalcharge  ;04.12.2018;FEY;;LION;49;14500;7200;192;2;91;92;8400;3000;4073;4074;1;13000;23.34;25.54;29,2;BCS1388054;4;15
009730;07.02.2021;11:52:20;Stop          ;04.12.2018;FEY;;LION;49;14500;7200;224;2;99;100;8400;;4153;4154;1;13001;25.74;27.14;29,7;BCS1388054;4;15
009730;03.03.2021;08:17:21;Normalcharge  ;04.12.2018;FEY;;LION;49;14500;7200;192;2;91;94;8400;3000;4079;4080;1;13010;23.04;22.64;23,5;BCS1388054;3;4
009730;04.03.2021;07:53:39;Stop           ;04.12.2018;FEY;;LION;49;14500;7200;224;2;98;100;8400;;4149;4150;1;13004;26.34;27.14;31,5;BCS1388054;3;4
009730;04.04.2021;11:49:55;Normalcharge  ;04.12.2018;FEY;;LION;49;14500;7200;192;3;52;53;8400;3000;3681;3680;1;13028;24.74;25.74;27,5;BCS1388054;7;2
009730;04.04.2021;11:51:17;Stop          ;04.12.2018;FEY;;LION;49;14500;7200;128;3;52;54;8400;3000;3769;3719;1;12764;24.74;28.94;28,4;BCS1388054;7;2
009730;05.04.2021;09:38:11;Charge to 60% ;04.12.2018;FEY;;LION;49;14500;7200;192;3;52;54;8400;3000;3683;3682;1;13018;24.84;25.84;26,3;BCS1388054;4;4
009730;05.04.2021;10:13:52;Stop          ;04.12.2018;FEY;;LION;49;14500;7200;192;3;57;60;8400;3000;3756;3751;1;13013;27.34;28.74;32,1;BCS1388054;4;4
009730;22.08.2021;11:37:30;Normalcharge  ;04.12.2018;FEY;;LION;49;14500;7200;192;3;53;54;8400;3000;3671;3671;1;12996;20.94;27.64;31,9;BCS1388054;3;16
009730;22.08.2021;11:38:19;Stop           ;04.12.2018;FEY;;LION;49;14500;7200;128;3;53;55;8400;3000;3758;3710;1;12550;21.04;29.64;32,1;BCS1388054;3;16
009730;25.08.2021;08:15:15;Ladung auf 60% ;04.12.2018;FEY;;LION;49;14500;7200;192;3;53;55;8400;3000;3674;3673;1;12997;30.34;30.94;33,4;BCS1388054;3;16
009730;25.08.2021;08:40:44;Stop           ;04.12.2018;FEY;;LION;49;14500;7200;192;3;58;60;8400;3000;3733;3731;1;12995;32.44;35.24;36,1;BCS1388054;3;16
009730;01.11.2021;09:52:01;Normalcharge  ;04.12.2018;FEY;;LION;49;14500;7200;192;3;54;56;8400;3000;3699;3698;1;13001;25.64;25.44;26,3;BCS1388054;5;10
009730;01.11.2021;09:53:41;Stop          ;04.12.2018;FEY;;LION;49;14500;7200;128;3;54;56;8400;3000;3791;3743;1;12579;25.64;28.94;27,3;BCS1388054;5;10
009730;01.11.2021;10:02:19;Normalcharge  ;04.12.2018;FEY;;LION;49;14500;7200;192;3;54;56;8400;3000;3703;3702;1;12998;25.84;27.14;29,5;BCS1388054;5;10
009730;01.11.2021;10:03:11;Stop          ;04.12.2018;FEY;;LION;49;14500;7200;128;3;54;56;8400;3000;3791;3741;1;12573;25.84;28.84;29,3;BCS1388054;5;10
009730;01.11.2021;10:27:35;Normalcharge  ;04.12.2018;FEY;;LION;49;14500;7200;192;3;54;56;8400;3000;3704;3703;1;12998;26.04;26.24;27,8;BCS1388054;5;10
009730;01.11.2021;10:29:14;Stop          ;04.12.2018;FEY;;LION;49;14500;7200;128;3;54;56;8400;3000;3796;3747;1;12575;26.14;29.74;28,6;BCS1388054;5;10
009730;01.11.2021;10:32:33;Charge to 60% ;04.12.2018;FEY;;LION;49;14500;7200;192;3;54;56;8400;3000;3709;3708;1;12998;26.14;27.64;29,9;BCS1388054;5;10
009730;01.11.2021;11:11:47;Stop          ;04.12.2018;FEY;;LION;49;14500;7200;192;3;58;60;8400;3000;3751;3748;1;12996;27.74;28.84;32,5;BCS1388054;5;10
009730;09.02.2022;08:16:53;Normalcharge  ;04.12.2018;FEY;;LION;49;14500;7200;192;3;54;56;8400;3000;3710;3709;1;13005;22.34;23.04;23,1;BCS1388054;1;14
009730;09.02.2022;13:56:48;Stop          ;04.12.2018;FEY;;LION;49;14500;7200;224;3;98;100;8400;;4157;4157;1;12960;25.44;27.44;29,9;BCS1388054;1;14
009730;14.03.2022;10:33:57;Normalcharge  ;04.12.2018;FEY;;LION;49;14500;7200;192;3;77;79;8400;3000;3926;3925;1;13015;24.04;25.34;25,4;BCS1388054;4;10
009730;14.03.2022;10:38:19;Stop          ;04.12.2018;FEY;;LION;49;14500;7200;128;3;78;80;8400;3000;4031;3982;1;12605;24.34;31.04;28,1;BCS1388054;4;10

File: 009731.txt
Serialnumber ; Date ; Time ; Action ; Date of Manufacture ; Manufacturer ; Battery Name ; Device-Chemistry ; Specification-Info ; Design-Capacity [mAh] ; Design-Voltage [mV] ; Battery Status ; Cycle Count ; SOC [%] ; Relativ SOC[%] ; Desired Voltage [mV]; Desired Current [mA]; Cell Voltage 1 [mV] ; Cell Voltage 2 [mV] ; Max_Error [%] ; Busvoltage[mV] ; Battery Temperature [°C] ; Charger Temperature [°C] ; Batterysystem ; Case ; PLace
009731;07.12.2020;04:14:21;Cycle         ;04.12.2018;FEY;;LION;49;14500;7200;16576;3;97;99;;;4155;4155;1;13012;25.64;26.74;30,3;BCS1388054;2;6
009731;08.12.2020;16:19:44;Stop          ;04.12.2018;FEY;;LION;49;14500;7200;16576;3;97;98;;;4152;4152;1;13011;27.54;28.14;31,9;BCS1388054;2;6
009731;12.01.2021;04:17:47;Charge to 90% ;04.12.2018;FEY;;LION;49;14500;7200;16576;3;96;97;;;4136;4135;1;13030;23.04;22.84;23,8;BCS1388054;7;6
009731;12.01.2021;04:57:19;Stop          ;04.12.2018;FEY;;LION;49;14500;7200;192;3;89;90;8400;3000;4062;4061;1;13024;26.84;27.14;31,5;BCS1388054;7;6
009731;12.01.2021;05:22:01;Cycle         ;04.12.2018;FEY;;LION;49;14500;7200;192;3;89;90;8400;3000;4067;4067;1;13025;26.64;25.94;30,4;BCS1388054;7;6
009731;13.01.2021;08:19:29;Stop          ;04.12.2018;FEY;;LION;49;14500;7200;224;4;97;100;8400;;4154;4154;1;13026;26.24;26.04;30,7;BCS1388054;7;6
009731;22.02.2021;17:31:46;Normalcharge  ;04.12.2018;FEY;;LION;49;14500;7200;192;5;40;42;8400;3000;3612;3611;1;13013;26.24;26.34;31,6;BCS1388054;1;16
009731;22.02.2021;23:06:28;Stop          ;04.12.2018;FEY;;LION;49;14500;7200;224;5;97;100;8400;;4164;4167;1;13016;26.84;27.74;30,6;BCS1388054;1;16
009731;06.04.2021;08:39:10;Normalcharge  ;04.12.2018;FEY;;LION;49;14500;7200;224;5;97;99;8400;;4128;4129;1;13011;21.54;25.34;28,1;BCS1388054;5;4
009731;06.04.2021;08:39:58;Stop          ;04.12.2018;FEY;;LION;49;14500;7200;224;5;97;99;8400;;4129;4130;1;13011;21.54;25.64;28,4;BCS1388054;5;4
009731;08.04.2021;07:58:30;Normalcharge  ;04.12.2018;FEY;;LION;49;14500;7200;224;5;96;99;8400;;4128;4130;1;13012;25.14;25.34;26,4;BCS1388054;5;4
009731;08.04.2021;07:59:28;Stop          ;04.12.2018;FEY;;LION;49;14500;7200;224;5;96;99;8400;;4128;4129;1;13012;25.14;25.94;26,7;BCS1388054;5;4
009731;08.04.2021;10:36:12;Normalcharge  ;04.12.2018;FEY;;LION;49;14500;7200;224;5;96;99;8400;;4128;4129;1;13012;25.34;26.24;28,6;BCS1388054;5;4
009731;08.04.2021;10:37:06;Stop          ;04.12.2018;FEY;;LION;49;14500;7200;224;5;96;99;8400;;4128;4129;1;13010;25.34;26.64;29,0;BCS1388054;5;4
009731;18.04.2021;08:34:16;Normalcharge  ;04.12.2018;FEY;;LION;49;14500;7200;192;5;96;98;8400;;4124;4125;1;13006;26.04;27.04;28,1;BCS1388054;5;4
009731;18.04.2021;08:34:27;Stop          ;04.12.2018;FEY;;LION;49;14500;7200;192;5;96;98;8400;;4124;4125;1;13005;26.04;27.14;28,2;BCS1388054;5;4
009731;04.08.2021;07:24:41;Normalcharge  ;04.12.2018;FEY;;LION;49;14500;7200;192;5;94;96;8400;;4093;4093;1;13003;30.14;30.74;31,5;BCS1388054;5;4
009731;04.08.2021;07:25:23;Stop          ;04.12.2018;FEY;;LION;49;14500;7200;192;5;94;96;8400;;4093;4093;1;13002;30.14;31.24;31,6;BCS1388054;5;4
009731;22.08.2021;11:08:08;Normalcharge  ;04.12.2018;FEY;;LION;49;14500;7200;192;5;94;96;8400;;4088;4089;1;13002;29.74;29.84;32,1;BCS1388054;5;3
009731;22.08.2021;11:08:41;Stop          ;04.12.2018;FEY;;LION;49;14500;7200;192;5;94;96;8400;;4088;4089;1;12839;29.74;30.34;32,5;BCS1388054;5;3