Folder: Battery_sort_V2/reader/Batterieverzeichnis_new (part 7)

File: 009630.txt
Serialnumber ; Date ; Time ; Action ; Date of Manufacture ; Manufacturer ; Battery Name ; Device-Chemistry ; Specification-Info ; Design-Capacity [mAh] ; Design-Voltage [mV] ; Battery Status ; Cycle Count ; SOC [%] ; Relativ SOC[%] ; Desired Voltage [mV]; Desired Current [mA]; Cell Voltage 1 [mV] ; Cell Voltage 2 [mV] ; Max_Error [%] ; Busvoltage[mV] ; Battery Temperature [°C] ; Charger Temperature [°C] ; Batterysystem ; Case ; PLace
009630;10.12.2019;15:28:47;Ladung auf 30% ;04.12.2018;FEY;;LION;49;14500;7200;224;47;93;99;8400;;4131;4132;1;13010;23.04;24.34;27,1;BCS1388054;3;9
009630;10.12.2019;20:47:21;Stop           ;04.12.2018;FEY;;LION;49;14500;7200;192;48;29;30;8400;3000;3560;3560;1;13009;34.74;33.94;33,5;BCS1388054;3;9
009630;11.12.2019;08:48:36;Fastcharge    ;04.12.2018;FEY;;LION;49;14500;7200;192;48;29;30;8400;3000;3568;3569;1;13007;26.74;27.84;31,9;BCS1388054;3;9
009630;11.12.2019;13:39:41;Stop           ;04.12.2018;FEY;;LION;49;14500;7200;224;48;95;100;8400;;4161;4162;1;13007;31.44;30.54;32,5;BCS1388054;3;9
009630;11.12.2019;15:46:24;Ladung auf 10% ;04.12.2018;FEY;;LION;49;14500;7200;224;48;96;100;8400;;4154;4154;1;13008;27.84;28.34;31,4;BCS1388054;3;9
009630;11.12.2019;22:48:44;Stop           ;04.12.2018;FEY;;LION;49;14500;7200;192;49;10;10;8400;3000;3357;3358;1;13009;35.64;34.24;33,6;BCS1388054;3;9
009630;12.12.2019;08:44:58;Normalcharge  ;04.12.2018;FEY;;LION;49;14500;7200;192;49;9;10;8400;3000;3366;3367;1;13007;26.94;28.04;31,9;BCS1388054;3;9
009630;12.12.2019;16:39:24;Stop           ;04.12.2018;FEY;;LION;49;14500;7200;224;49;96;100;8400;;4160;4161;1;13008;30.34;30.04;31,7;BCS1388054;3;9
009630;13.12.2019;10:47:57;Ladung auf 10% ;04.12.2018;FEY;;LION;49;14500;7200;224;49;96;100;8400;;4148;4149;1;13008;26.94;28.14;32,0;BCS1388054;3;9
009630;13.12.2019;15:42:18;Stop           ;04.12.2018;FEY;;LION;49;14500;7200;192;50;35;36;8400;3000;3500;3552;1;13551;34.24;38.24;34,6;BCS1388054;3;9
009630;13.12.2019;15:42:20;Cycle          ;04.12.2018;FEY;;LION;49;14500;7200;192;50;35;36;8400;3000;3501;3552;1;13009;34.24;38.24;34,6;BCS1388054;3;9
009630;14.12.2019;22:36:33;Stop           ;04.12.2018;FEY;;LION;49;14500;7200;224;51;94;100;8400;;4152;4153;1;13008;27.24;28.04;31,6;BCS1388054;3;9
009630;16.12.2019;07:43:10;Ladung auf 10% ;04.12.2018;FEY;;LION;49;14500;7200;224;51;94;100;8400;;4146;4146;1;13008;26.74;27.34;31,9;BCS1388054;3;9
009630;16.12.2019;14:34:27;Stop           ;04.12.2018;FEY;;LION;49;14500;7200;192;52;10;10;8400;3000;3362;3363;1;13008;34.24;33.44;32,5;BCS1388054;3;9
009630;16.12.2019;14:44:07;Ladung auf 90% ;04.12.2018;FEY;;LION;49;14500;7200;192;52;10;10;8400;3000;3365;3366;1;13009;33.44;31.54;31,7;BCS1388054;3;9
009630;16.12.2019;20:48:39;Stop           ;04.12.2018;FEY;;LION;49;14500;7200;192;52;85;90;8400;3000;4058;4060;1;13010;33.24;32.44;31,9;BCS1388054;3;9
009630;17.12.2019;08:37:44;Fastcharge    ;04.12.2018;FEY;;LION;49;14500;7200;192;52;85;90;8400;3000;4046;4047;1;13007;26.84;27.84;31,5;BCS1388054;3;9
009630;17.12.2019;10:30:44;Stop           ;04.12.2018;FEY;;LION;49;14500;7200;224;52;95;100;8400;;4160;4161;1;13009;28.74;29.34;31,4;BCS1388054;3;9
009630;17.12.2019;13:38:28;Ladung auf 10% ;04.12.2018;FEY;;LION;49;14500;7200;224;52;95;100;8400;;4150;4150;1;13008;27.24;27.94;30,8;BCS1388054;3;9
009630;17.12.2019;20:32:04;Stop           ;04.12.2018;FEY;;LION;49;14500;7200;192;54;10;10;8400;3000;3361;3362;1;13010;35.74;34.84;34,6;BCS1388054;3;9
009630;18.12.2019;08:31:22;Fastcharge    ;04.12.2018;FEY;;LION;49;14500;7200;192;54;10;10;8400;3000;3371;3372;1;13008;26.94;27.94;31,6;BCS1388054;3;9
009630;18.12.2019;14:26:33;Stop           ;04.12.2018;FEY;;LION;49;14500;7200;224;54;95;100;8400;;4161;4162;1;13008;31.54;30.64;32,5;BCS1388054;3;9
009630;19.12.2019;08:23:54;Ladung auf 60% ;04.12.2018;FEY;;LION;49;14500;7200;224;54;96;100;8400;;4149;4150;1;13008;26.84;27.74;31,6;BCS1388054;3;9
009630;19.12.2019;11:28:29;Stop           ;04.12.2018;FEY;;LION;49;14500;7200;192;54;58;60;8400;3000;3763;3763;1;13010;35.34;36.34;35,1;BCS1388054;3;9
009630;19.12.2019;12:16:41;Cycle          ;04.12.2018;FEY;;LION;49;14500;7200;192;54;58;60;8400;3000;3778;3779;1;13008;31.84;30.44;32,7;BCS1388054;3;9
009630;20.12.2019;17:23:28;Stop           ;04.12.2018;FEY;;LION;49;14500;7200;224;55;94;100;8400;;4151;4151;1;13007;27.44;28.14;31,9;BCS1388054;3;9
009630;06.01.2020;06:34:46;Ladung auf 60% ;04.12.2018;FEY;;LION;49;14500;7200;192;55;92;98;8400;;4121;4121;1;13009;26.94;27.84;31,9;BCS1388054;3;9
009630;06.01.2020;09:29:20;Stop           ;04.12.2018;FEY;;LION;49;14500;7200;192;56;57;60;8400;3000;3772;3772;1;13010;34.34;34.44;34,2;BCS1388054;3;9
009630;06.01.2020;09:50:34;Fastcharge    ;04.12.2018;FEY;;LION;49;14500;7200;192;56;57;60;8400;3000;3781;3781;1;13009;32.84;31.34;32,7;BCS1388054;3;9
009630;06.01.2020;13:06:26;Stop           ;04.12.2018;FEY;;LION;49;14500;7200;224;56;94;100;8400;;4160;4159;1;13009;30.94;30.24;32,1;BCS1388054;3;9

File: 009646.txt
Serialnumber ; Date ; Time ; Action ; Date of Manufacture ; Manufacturer ; Battery Name ; Device-Chemistry ; Specification-Info ; Design-Capacity [mAh] ; Design-Voltage [mV] ; Battery Status ; Cycle Count ; SOC [%] ; Relativ SOC[%] ; Desired Voltage [mV]; Desired Current [mA]; Cell Voltage 1 [mV] ; Cell Voltage 2 [mV] ; Max_Error [%] ; Busvoltage[mV] ; Battery Temperature [°C] ; Charger Temperature [°C] ; Batterysystem ; Case ; PLace
009646;07.12.2020;04:14:36;Cycle         ;03.12.2018;FEY;;LION;49;14500;7200;192;1;97;98;8400;;4127;4130;1;12993;25.34;28.14;30,3;BCS1388054;6;8
009646;08.12.2020;16:20:13;Stop          ;03.12.2018;FEY;;LION;49;14500;7200;192;1;97;98;8400;;4126;4128;1;12996;27.54;29.84;31,9;BCS1388054;6;8
009646;12.01.2021;04:17:33;Charge to 90% ;03.12.2018;FEY;;LION;49;14500;7200;192;1;96;97;8400;;4114;4116;1;13008;22.74;23.44;23,6;BCS1388054;4;6
009646;12.01.2021;04:57:16;Stop          ;03.12.2018;FEY;;LION;49;14500;7200;192;1;89;90;8400;3000;4054;4056;1;13002;27.14;28.44;31,6;BCS1388054;4;6
009646;12.01.2021;05:21:49;Cycle         ;03.12.2018;FEY;;LION;49;14500;7200;192;1;89;90;8400;3000;4057;4059;1;13003;26.94;26.94;30,4;BCS1388054;4;6
009646;13.01.2021;08:19:19;Stop          ;03.12.2018;FEY;;LION;49;14500;7200;224;2;97;100;8400;;4156;4157;1;13003;26.54;27.14;30,7;BCS1388054;4;6
009646;03.03.2021;08:17:46;Normalcharge  ;03.12.2018;FEY;;LION;49;14500;7200;2768;3;;;8400;3000;3059;3055;1;13025;22.74;23.94;23,6;BCS1388054;7;12
009646;03.03.2021;10:54:05;Stop          ;03.12.2018;FEY;;LION;49;14500;7200;128;3;32;33;8400;3000;3675;3625;1;12685;28.74;30.34;31,4;BCS1388054;7;12
009646;03.03.2021;10:55:49;Normalcharge  ;03.12.2018;FEY;;LION;49;14500;7200;192;3;32;33;8400;3000;3591;3591;1;13017;28.74;29.04;30,6;BCS1388054;7;12
009646;03.03.2021;17:03:24;Stop          ;03.12.2018;FEY;;LION;49;14500;7200;224;3;97;100;8400;;4164;4165;1;13017;25.84;26.94;31,4;BCS1388054;7;12
009646;04.04.2021;11:50:10;Normalcharge  ;03.12.2018;FEY;;LION;49;14500;7200;192;3;55;56;8400;3000;3712;3712;1;13011;24.44;26.24;27,8;BCS1388054;5;16
009646;04.04.2021;11:51:30;Stop          ;03.12.2018;FEY;;LION;49;14500;7200;128;3;55;57;8400;3000;3801;3754;1;12662;24.54;28.94;28,5;BCS1388054;5;16
009646;05.04.2021;09:37:37;Charge to 60% ;03.12.2018;FEY;;LION;49;14500;7200;192;3;55;57;8400;3000;3715;3715;1;12993;24.64;26.14;26,0;BCS1388054;1;9
009646;05.04.2021;10:01:53;Stop          ;03.12.2018;FEY;;LION;49;14500;7200;192;3;58;60;8400;3000;3772;3771;1;12990;26.04;28.64;31,2;BCS1388054;1;9
009646;22.08.2021;11:08:18;Normalcharge  ;03.12.2018;FEY;;LION;49;14500;7200;192;3;54;56;8400;3000;3705;3705;1;13025;29.34;31.24;32,2;BCS1388054;7;8
009646;22.08.2021;11:08:51;Stop          ;03.12.2018;FEY;;LION;49;14500;7200;128;3;54;56;8400;3000;3737;3716;1;12838;29.34;32.44;32,6;BCS1388054;7;8
009646;25.08.2021;08:15:19;Charge to 60% ;03.12.2018;FEY;;LION;49;14500;7200;192;3;54;56;8400;3000;3704;3704;1;13004;29.84;32.04;33,5;BCS1388054;2;9
009646;25.08.2021;10:43:16;Stop          ;03.12.2018;FEY;;LION;49;14500;7200;192;3;58;60;8400;3000;3760;3759;1;13003;32.54;34.44;36,4;BCS1388054;2;9

File: 009650.txt
Serialnumber ; Date ; Time ; Action ; Date of Manufacture ; Manufacturer ; Battery Name ; Device-Chemistry ; Specification-Info ; Design-Capacity [mAh] ; Design-Voltage [mV] ; Battery Status ; Cycle Count ; SOC [%] ; Relativ SOC[%] ; Desired Voltage [mV]; Desired Current [mA]; Cell Voltage 1 [mV] ; Cell Voltage 2 [mV] ; Max_Error [%] ; Busvoltage[mV] ; Battery Temperature [°C] ; Charger Temperature [°C] ; Batterysystem ; Case ; PLace
009650;07.12.2020;04:14:32;Cycle         ;04.12.2018;FEY;;LION;49;14500;7200;16576;4;97;98;;;4142;4141;1;13007;25.54;27.04;30,3;BCS1388054;5;11
009650;08.12.2020;16:20:01;Stop          ;04.12.2018;FEY;;LION;49;14500;7200;16576;4;97;98;;;4139;4139;1;13005;27.54;28.54;31,7;BCS1388054;5;11
009650;12.01.2021;04:17:40;Charge to 90% ;04.12.2018;FEY;;LION;49;14500;7200;16576;4;96;97;;;4125;4125;1;12998;22.84;23.84;23,6;BCS1388054;6;18
009650;12.01.2021;05:00:55;Stop          ;04.12.2018;FEY;;LION;49;14500;7200;192;4;90;90;8400;3000;4062;4062;1;12992;27.14;29.44;31,2;BCS1388054;6;18
009650;12.01.2021;05:21:57;Cycle         ;04.12.2018;FEY;;LION;49;14500;7200;192;4;90;90;8400;3000;4065;4065;1;12994;26.84;28.34;30,4;BCS1388054;6;18
009650;13.01.2021;08:31:18;Stop          ;04.12.2018;FEY;;LION;49;14500;7200;224;5;98;100;8400;;4155;4155;1;12993;26.54;28.34;31,1;BCS1388054;6;18
009650;21.02.2021;13:43:32;Normalcharge  ;04.12.2018;FEY;;LION;49;14500;7200;224;5;96;99;8400;;4130;4130;1;12989;23.14;25.24;27,5;BCS1388054;2;15
009650;21.02.2021;19:27:00;Stop          ;04.12.2018;FEY;;LION;49;14500;7200;224;5;96;99;8400;;4130;4130;1;12990;26.84;28.54;31,1;BCS1388054;2;15
009650;04.04.2021;11:50:33;Normalcharge  ;04.12.2018;FEY;;LION;49;14500;7200;192;6;53;54;8400;3000;3688;3689;1;13005;24.84;26.64;27,9;BCS1388054;2;1
009650;04.04.2021;11:51:48;Stop          ;04.12.2018;FEY;;LION;49;14500;7200;128;6;53;54;8400;3000;3778;3729;1;12621;24.84;29.34;28,6;BCS1388054;2;1
009650;05.04.2021;09:37:46;Charge to 60% ;04.12.2018;FEY;;LION;49;14500;7200;192;6;53;54;8400;3000;3690;3691;1;13005;24.94;25.74;26,1;BCS1388054;2;14
009650;05.04.2021;10:03:48;Stop          ;04.12.2018;FEY;;LION;49;14500;7200;128;6;58;60;8400;3000;3766;3768;1;13001;27.14;33.54;31,4;BCS1388054;2;14
009650;22.08.2021;11:08:13;Normalcharge  ;04.12.2018;FEY;;LION;49;14500;7200;192;6;54;55;8400;3000;3699;3699;1;13002;29.54;29.74;32,2;BCS1388054;6;4
009650;22.08.2021;11:08:46;Stop          ;04.12.2018;FEY;;LION;49;14500;7200;128;6;54;55;8400;3000;3729;3713;1;12821;29.64;30.94;32,5;BCS1388054;6;4
009650;25.08.2021;08:15:08;Charge to 60% ;04.12.2018;FEY;;LION;49;14500;7200;192;6;54;55;8400;3000;3698;3699;1;13000;30.24;31.64;33,4;BCS1388054;4;13
009650;25.08.2021;12:59:17;Stop          ;04.12.2018;FEY;;LION;49;14500;7200;192;6;58;60;8400;3000;3748;3748;1;12999;32.54;34.24;36,6;BCS1388054;4;13
009650;01.11.2021;09:52:01;Normalcharge  ;04.12.2018;FEY;;LION;49;14500;7200;192;6;55;57;8400;3000;3716;3717;1;12994;25.64;25.64;26,3;BCS1388054;5;13
009650;01.11.2021;09:53:41;Stop          ;04.12.2018;FEY;;LION;49;14500;7200;128;6;56;57;8400;3000;3807;3761;1;12582;25.64;29.74;27,3;BCS1388054;5;13
009650;01.11.2021;10:02:19;Normalcharge  ;04.12.2018;FEY;;LION;49;14500;7200;192;6;56;57;8400;3000;3721;3722;1;12991;25.84;27.74;29,5;BCS1388054;5;13
009650;01.11.2021;10:03:11;Stop          ;04.12.2018;FEY;;LION;49;14500;7200;128;6;56;57;8400;3000;3806;3762;1;12579;25.84;29.84;29,3;BCS1388054;5;13
009650;01.11.2021;10:27:35;Normalcharge  ;04.12.2018;FEY;;LION;49;14500;7200;192;6;56;57;8400;3000;3722;3723;1;12993;26.04;26.44;27,8;BCS1388054;5;13
009650;01.11.2021;10:29:14;Stop          ;04.12.2018;FEY;;LION;49;14500;7200;128;6;56;58;8400;3000;3813;3769;1;12578;26.14;30.54;28,6;BCS1388054;5;13
009650;01.11.2021;10:32:33;Charge to 60% ;04.12.2018;FEY;;LION;49;14500;7200;192;6;56;58;8400;3000;3727;3728;1;12995;26.14;28.04;29,9;BCS1388054;5;13
009650;01.11.2021;11:11:47;Stop          ;04.12.2018;FEY;;LION;49;14500;7200;192;6;58;60;8400;3000;3754;3755;1;12995;27.74;29.84;32,5;BCS1388054;5;13
009650;09.02.2022;08:16:53;Normalcharge  ;04.12.2018;FEY;;LION;49;14500;7200;192;6;30;31;8400;3000;3545;3546;1;13011;22.14;22.44;23,1;BCS1388054;1;7
009650;09.02.2022;13:56:48;Stop          ;04.12.2018;FEY;;LION;49;14500;7200;128;6;97;99;8400;3000;4180;4162;1;12968;26.54;29.14;29,9;BCS1388054;1;7
009650;14.03.2022;12:14:36;Normalcharge  ;04.12.2018;FEY;;LION;49;14500;7200;192;6;94;97;8400;3000;4104;4103;1;13005;24.24;25.14;27,7;BCS1388054;3;12
009650;14.03.2022;12:18:51;Stop           ;04.12.2018;FEY;;LION;49;14500;7200;128;6;95;97;8400;3000;4173;4151;1;12963;24.34;26.94;29,5;BCS1388054;3;12
009650;29.03.2022;08:21:01;Normalcharge  ;04.12.2018;FEY;;LION;49;14500;7200;192;6;81;83;8400;3000;3953;3953;1;13010;24.64;25.84;25,8;BCS1388054;3;13
009650;29.03.2022;08:21:40;Stop           ;04.12.2018;FEY;;LION;49;14500;7200;128;6;81;83;8400;3000;4004;3977;1;12638;24.64;27.44;26,0;BCS1388054;3;13
009650;29.03.2022;08:22:08;Normalcharge  ;04.12.2018;FEY;;LION;49;14500;7200;128;6;81;83;8400;3000;3955;3957;1;13008;24.64;27.14;26,3;BCS1388054;3;13
009650;29.03.2022;08:22:36;Stop           ;04.12.2018;FEY;;LION;49;14500;7200;128;6;81;83;8400;3000;3973;3964;1;12706;24.64;27.74;26,4;BCS1388054;3;13

File: 009652.txt
Serialnumber ; Date ; Time ; Action ; Date of Manufacture ; Manufacturer ; Battery Name ; Device-Chemistry ; Specification-Info ; Design-Capacity [mAh] ; Design-Voltage [mV] ; Battery Status ; Cycle Count ; SOC [%] ; Relativ SOC[%] ; Desired Voltage [mV]; Desired Current [mA]; Cell Voltage 1 [mV] ; Cell Voltage 2 [mV] ; Max_Error [%] ; Busvoltage[mV] ; Battery Temperature [°C] ; Charger Temperature [°C] ; Batterysystem ; Case ; PLace
009652;07.12.2020;04:14:25;Cycle          ;04.12.2018;FEY;;LION;49;14500;7200;16576;2;99;99;;;4151;4153;1;13010;25.64;27.94;30,3;BCS1388054;3;3
009652;08.12.2020;16:19:50;Stop           ;04.12.2018;FEY;;LION;49;14500;7200;16576;2;99;99;;;4148;4150;1;13012;27.84;29.54;31,9;BCS1388054;3;3
009652;03.03.2021;08:17:40;Normalcharge  ;04.12.2018;FEY;;LION;49;14500;7200;192;2;72;72;8400;3000;3870;3871;1;13015;23.14;23.74;23,6;BCS1388054;6;3
009652;03.03.2021;11:56:52;Stop          ;04.12.2018;FEY;;LION;49;14500;7200;224;2;100;100;8400;;4158;4159;1;13009;28.04;29.84;31,7;BCS1388054;6;3
009652;06.04.2021;08:38:46;Normalcharge  ;04.12.2018;FEY;;LION;49;14500;7200;224;2;99;99;8400;;4133;4134;1;13007;20.84;26.24;28,1;BCS1388054;2;10
009652;06.04.2021;08:39:36;Stop          ;04.12.2018;FEY;;LION;49;14500;7200;224;2;99;99;8400;;4133;4134;1;13005;20.94;26.44;28,2;BCS1388054;2;10
009652;08.04.2021;07:57:57;Normalcharge  ;04.12.2018;FEY;;LION;49;14500;7200;224;2;99;99;8400;;4133;4134;1;13009;25.24;26.34;26,3;BCS1388054;2;10
009652;08.04.2021;07:59:45;Stop          ;04.12.2018;FEY;;LION;49;14500;7200;224;2;99;99;8400;;4133;4134;1;13005;25.24;27.04;26,8;BCS1388054;2;10
009652;08.04.2021;10:35:00;Normalcharge  ;04.12.2018;FEY;;LION;49;14500;7200;224;2;99;99;8400;;4133;4134;1;13008;25.64;26.84;28,1;BCS1388054;2;10
009652;08.04.2021;10:36:53;Stop          ;04.12.2018;FEY;;LION;49;14500;7200;224;2;99;99;8400;;4133;4134;1;13004;25.64;27.54;28,9;BCS1388054;2;10
009652;18.04.2021;08:33:36;Normalcharge  ;04.12.2018;FEY;;LION;49;14500;7200;224;2;98;99;8400;;4129;4130;1;13005;26.14;27.74;27,7;BCS1388054;2;10
009652;18.04.2021;08:33:44;Stop          ;04.12.2018;FEY;;LION;49;14500;7200;224;2;98;99;8400;;4129;4130;1;13004;26.14;27.74;27,8;BCS1388054;2;10
009652;04.08.2021;07:24:55;Normalcharge  ;04.12.2018;FEY;;LION;49;14500;7200;192;2;96;96;8400;;4096;4096;1;12998;30.44;32.04;31,5;BCS1388054;2;10
009652;04.08.2021;07:25:47;Stop          ;04.12.2018;FEY;;LION;49;14500;7200;192;2;96;96;8400;;4095;4096;1;12995;30.44;32.34;31,9;BCS1388054;2;10
009652;22.08.2021;11:08:08;Normalcharge  ;04.12.2018;FEY;;LION;49;14500;7200;192;2;93;94;8400;3000;4082;4083;1;13010;23.94;29.74;32,1;BCS1388054;5;2
009652;22.08.2021;11:08:41;Stop          ;04.12.2018;FEY;;LION;49;14500;7200;128;2;93;94;8400;3000;4106;4096;1;12848;23.94;31.24;32,5;BCS1388054;5;2
009652;14.10.2021;12:39:57;Normalcharge  ;04.12.2018;FEY;;LION;49;14500;7200;192;2;92;93;8400;3000;4068;4068;1;13003;25.44;27.04;27,9;BCS1388054;2;3
009652;14.10.2021;12:41:24;Stop          ;04.12.2018;FEY;;LION;49;14500;7200;128;2;92;93;8400;3000;4133;4106;1;12577;25.54;30.24;28,2;BCS1388054;2;3
009652;01.11.2021;09:52:10;Normalcharge  ;04.12.2018;FEY;;LION;49;14500;7200;192;2;89;90;8400;3000;4036;4037;1;13006;24.24;25.14;26,4;BCS1388054;3;5
009652;01.11.2021;09:53:26;Stop           ;04.12.2018;FEY;;LION;49;14500;7200;128;2;89;90;8400;3000;4116;4080;1;12607;24.34;27.84;27,1;BCS1388054;3;5
009652;01.11.2021;10:02:09;Normalcharge  ;04.12.2018;FEY;;LION;49;14500;7200;192;2;89;90;8400;3000;4038;4039;1;13002;24.64;26.94;29,5;BCS1388054;3;5
009652;01.11.2021;10:03:20;Stop           ;04.12.2018;FEY;;LION;49;14500;7200;128;2;89;90;8400;3000;4114;4080;1;12603;24.84;28.84;29,5;BCS1388054;3;5
009652;28.12.2021;09:01:25;Normalcharge  ;04.12.2018;FEY;;LION;49;14500;7200;192;2;85;86;8400;3000;3990;3991;1;13005;23.44;24.64;25,3;BCS1388054;3;1
009652;28.12.2021;09:02:24;Stop           ;04.12.2018;FEY;;LION;49;14500;7200;128;2;85;86;8400;3000;4083;4038;1;12573;23.54;27.04;25,8;BCS1388054;3;1
009652;13.03.2022;12:10:09;Normalcharge  ;04.12.2018;FEY;;LION;49;14500;7200;192;2;48;49;8400;3000;3646;3647;1;13009;24.14;23.54;25,6;BCS1388054;3;2
009652;13.03.2022;12:10:50;Stop           ;04.12.2018;FEY;;LION;49;14500;7200;128;2;48;49;8400;3000;3679;3661;1;12756;24.14;25.24;25,7;BCS1388054;3;2

File: 009656.txt
Serialnumber ; Date ; Time ; Action ; Date of Manufacture ; Manufacturer ; Battery Name ; Device-Chemistry ; Specification-Info ; Design-Capacity [mAh] ; Design-Voltage [mV] ; Battery Status ; Cycle Count ; SOC [%] ; Relativ SOC[%] ; Desired Voltage [mV]; Desired Current [mA]; Cell Voltage 1 [mV] ; Cell Voltage 2 [mV] ; Max_Error [%] ; Busvoltage[mV] ; Battery Temperature [°C] ; Charger Temperature [°C] ; Batterysystem ; Case ; PLace
009656;12.01.2021;04:17:22;Charge to 90% ;03.12.2018;FEY;;LION;49;14500;7200;16576;2;96;98;;;4133;4133;1;12992;22.54;23.94;23,5;BCS1388054;2;18
009656;12.01.2021;04:54:21;Stop          ;03.12.2018;FEY;;LION;49;14500;7200;192;3;89;90;8400;3000;4047;4046;1;12986;27.34;33.54;31,9;BCS1388054;2;18
009656;12.01.2021;05:21:40;Cycle         ;03.12.2018;FEY;;LION;49;14500;7200;192;3;89;90;8400;3000;4058;4058;1;12986;26.74;28.54;30,6;BCS1388054;2;18
009656;13.01.2021;08:20:19;Stop          ;03.12.2018;FEY;;LION;49;14500;7200;224;4;96;100;8400;;4156;4154;1;12985;26.14;28.34;30,8;BCS1388054;2;18
009656;03.03.2021;08:17:17;Normalcharge  ;03.12.2018;FEY;;LION;49;14500;7200;192;4;91;94;8400;3000;4081;4080;1;12994;22.54;23.74;23,5;BCS1388054;2;18
009656;04.03.2021;07:53:46;Stop          ;03.12.2018;FEY;;LION;49;14500;7200;224;4;97;100;8400;;4148;4147;1;12986;25.74;27.94;31,6;BCS1388054;2;18
009656;04.04.2021;11:49:55;Normalcharge  ;03.12.2018;FEY;;LION;49;14500;7200;192;4;52;54;8400;3000;3689;3689;1;13037;24.54;24.94;27,5;BCS1388054;7;14
009656;04.04.2021;11:51:17;Stop          ;03.12.2018;FEY;;LION;49;14500;7200;128;4;52;54;8400;3000;3777;3730;1;12762;24.64;28.54;28,4;BCS1388054;7;14
009656;05.04.2021;09:38:11;Charge to 60% ;03.12.2018;FEY;;LION;49;14500;7200;192;4;52;55;8400;3000;3692;3691;1;12994;24.44;26.74;26,3;BCS1388054;4;2
009656;05.04.2021;10:13:52;Stop          ;03.12.2018;FEY;;LION;49;14500;7200;192;4;57;60;8400;3000;3754;3753;1;12991;26.64;30.44;32,1;BCS1388054;4;2
009656;22.08.2021;11:37:21;Normalcharge  ;03.12.2018;FEY;;LION;49;14500;7200;224;4;97;100;8400;;4147;4146;1;13012;20.74;27.84;31,9;BCS1388054;5;17
009656;22.08.2021;11:38:04;Stop          ;03.12.2018;FEY;;LION;49;14500;7200;224;4;97;100;8400;;4147;4146;1;12769;20.84;28.14;32,0;BCS1388054;5;17
009656;14.10.2021;12:40:22;Normalcharge  ;03.12.2018;FEY;;LION;49;14500;7200;192;5;93;96;8400;;4091;4090;1;13020;22.84;25.54;28,1;BCS1388054;7;15
009656;14.10.2021;12:42:05;Stop          ;03.12.2018;FEY;;LION;49;14500;7200;192;5;93;96;8400;;4091;4090;1;12730;22.94;26.24;28,5;BCS1388054;7;15
009656;14.03.2022;12:14:21;Normalcharge  ;03.12.2018;FEY;;LION;49;14500;7200;192;5;63;66;8400;3000;3801;3800;1;13008;23.44;25.34;27,5;BCS1388054;6;11
009656;14.03.2022;12:18:18;Stop          ;03.12.2018;FEY;;LION;49;14500;7200;128;5;64;66;8400;3000;3908;3860;1;12830;23.74;29.34;29,3;BCS1388054;6;11
009656;17.05.2022;08:54:14;Normalcharge  ;03.12.2018;FEY;;LION;49;14500;7200;192;5;63;66;8400;3000;3783;3781;1;13009;27.84;29.84;30,8;BCS1388054;3;15
009656;17.05.2022;12:55:21;Stop           ;03.12.2018;FEY;;LION;49;14500;7200;224;5;97;100;8400;;4162;4161;1;13009;30.94;32.64;34,1;BCS1388054;3;15

File: 009659.txt
Serialnumber ; Date ; Time ; Action ; Date of Manufacture ; Manufacturer ; Battery Name ; Device-Chemistry ; Specification-Info ; Design-Capacity [mAh] ; Design-Voltage [mV] ; Battery Status ; Cycle Count ; SOC [%] ; Relativ SOC[%] ; Desired Voltage [mV]; Desired Current [mA]; Cell Voltage 1 [mV] ; Cell Voltage 2 [mV] ; Max_Error [%] ; Busvoltage[mV] ; Battery Temperature [°C] ; Charger Temperature [°C] ; Batterysystem ; Case ; PLace
009659;07.02.2021;08:47:07;Normalcharge  ;03.12.2018;FEY;;LION;49;14500;7200;192;3;85;86;8400;3000;4005;4005;1;13013;22.84;26.54;29,2;BCS1388054;5;2
009659;07.02.2021;11:50:11;Stop          ;03.12.2018;FEY;;LION;49;14500;7200;224;3;99;100;8400;;4154;4153;1;13013;25.14;28.04;30,0;BCS1388054;5;2
009659;03.03.2021;08:17:17;Normalcharge  ;03.12.2018;FEY;;LION;49;14500;7200;192;3;92;95;8400;3000;4087;4088;1;13008;22.54;23.04;23,5;BCS1388054;2;11
009659;04.03.2021;07:53:46;Stop          ;03.12.2018;FEY;;LION;49;14500;7200;224;3;98;100;8400;;4148;4147;1;13000;25.74;26.74;31,6;BCS1388054;2;11
009659;04.04.2021;11:50:39;Normalcharge  ;03.12.2018;FEY;;LION;49;14500;7200;192;3;53;55;8400;3000;3691;3692;1;12995;24.34;26.84;28,1;BCS1388054;1;14
009659;04.04.2021;11:51:54;Stop          ;03.12.2018;FEY;;LION;49;14500;7200;128;3;53;55;8400;3000;3776;3731;1;12555;24.44;30.04;28,8;BCS1388054;1;14
009659;05.04.2021;09:37:46;Charge to 60% ;03.12.2018;FEY;;LION;49;14500;7200;192;3;53;55;8400;3000;3693;3694;1;13004;24.54;26.44;26,1;BCS1388054;2;17
009659;05.04.2021;10:03:48;Stop          ;03.12.2018;FEY;;LION;49;14500;7200;192;3;58;60;8400;3000;3760;3761;1;12999;26.64;31.34;31,4;BCS1388054;2;17
009659;22.08.2021;11:37:21;Normalcharge  ;03.12.2018;FEY;;LION;49;14500;7200;704;4;2;2;8400;3000;3199;3214;1;13006;21.24;28.74;31,9;BCS1388054;5;4
009659;22.08.2021;11:38:04;Stop          ;03.12.2018;FEY;;LION;49;14500;7200;128;4;2;2;8400;3000;3358;3326;1;12760;21.34;30.54;32,0;BCS1388054;5;4
009659;25.08.2021;08:15:02;Charge to 60% ;03.12.2018;FEY;;LION;49;14500;7200;704;4;2;2;8400;3000;3194;3209;1;13003;29.74;32.04;33,2;BCS1388054;5;4
009659;25.08.2021;13:03:31;Stop          ;03.12.2018;FEY;;LION;49;14500;7200;192;4;58;60;8400;3000;3786;3787;1;13001;33.24;34.34;36,6;BCS1388054;5;4
009659;28.12.2021;09:01:29;Normalcharge  ;03.12.2018;FEY;;LION;49;14500;7200;192;4;45;46;8400;3000;3627;3627;1;12995;22.94;25.14;25,4;BCS1388054;4;2
009659;28.12.2021;09:02:38;Stop          ;03.12.2018;FEY;;LION;49;14500;7200;128;4;45;46;8400;3000;3713;3668;1;12598;22.94;28.04;25,8;BCS1388054;4;2
009659;07.02.2022;08:50:37;Normalcharge  ;03.12.2018;FEY;;LION;49;14500;7200;192;4;45;46;8400;3000;3622;3622;1;13029;21.64;22.04;25,0;BCS1388054;7;17
009659;07.02.2022;14:21:07;Stop          ;03.12.2018;FEY;;LION;49;14500;7200;224;4;98;100;8400;;4159;4160;1;13022;24.24;26.34;28,9;BCS1388054;7;17
009659;14.03.2022;10:33:51;Normalcharge  ;03.12.2018;FEY;;LION;49;14500;7200;192;5;78;81;8400;3000;3936;3936;1;13015;23.54;25.44;25,3;BCS1388054;5;2
009659;14.03.2022;10:38:12;Stop          ;03.12.2018;FEY;;LION;49;14500;7200;128;5;79;81;8400;3000;4044;3997;1;12717;23.84;31.74;28,1;BCS1388054;5;2
009659;17.05.2022;08:54:14;Normalcharge  ;03.12.2018;FEY;;LION;49;14500;7200;192;5;79;81;8400;3000;3927;3927;1;12991;28.04;30.44;30,8;BCS1388054;3;8
009659;17.05.2022;12:55:21;Stop           ;03.12.2018;FEY;;LION;49;14500;7200;224;5;98;100;8400;;4156;4157;1;12990;30.84;33.04;34,1;BCS1388054;3;8