Folder: Battery_sort_V2/reader/Batterieverzeichnis_new (part 18)

File: 009850.txt
Serialnumber ; Date ; Time ; Action ; Date of Manufacture ; Manufacturer ; Battery Name ; Device-Chemistry ; Specification-Info ; Design-Capacity [mAh] ; Design-Voltage [mV] ; Battery Status ; Cycle Count ; SOC [%] ; Relativ SOC[%] ; Desired Voltage [mV]; Desired Current [mA]; Cell Voltage 1 [mV] ; Cell Voltage 2 [mV] ; Max_Error [%] ; Busvoltage[mV] ; Battery Temperature [°C] ; Charger Temperature [°C] ; Batterysystem ; Case ; PLace
009850;12.01.2021;04:17:28;Ladung auf 90% ;04.12.2018;FEY;;LION;49;14500;7200;192;2;95;96;8400;;4108;4107;1;13004;22.94;23.04;23,6;BCS1388054;3;6
009850;12.01.2021;04:57:30;Stop           ;04.12.2018;FEY;;LION;49;14500;7200;192;2;90;90;8400;3000;4053;4051;1;12999;27.14;28.24;31,5;BCS1388054;3;6
009850;12.01.2021;05:21:45;Cycle          ;04.12.2018;FEY;;LION;49;14500;7200;192;2;90;90;8400;3000;4055;4054;1;13000;27.14;26.74;30,4;BCS1388054;3;6
009850;13.01.2021;08:23:25;Stop           ;04.12.2018;FEY;;LION;49;14500;7200;224;4;98;100;8400;;4155;4156;1;12999;26.64;27.04;31,4;BCS1388054;3;6
009850;21.02.2021;13:43:49;Normalcharge  ;04.12.2018;FEY;;LION;49;14500;7200;224;4;96;99;8400;;4129;4130;1;13011;22.74;23.14;27,7;BCS1388054;3;9
009850;21.02.2021;20:44:52;Stop           ;04.12.2018;FEY;;LION;49;14500;7200;224;4;97;99;8400;;4130;4130;1;13005;26.64;27.64;31,2;BCS1388054;3;9
009850;06.04.2021;08:39:10;Normalcharge  ;04.12.2018;FEY;;LION;49;14500;7200;192;4;95;98;8400;;4113;4114;1;13018;21.64;25.44;28,1;BCS1388054;5;18
009850;06.04.2021;08:39:59;Stop          ;04.12.2018;FEY;;LION;49;14500;7200;192;4;95;98;8400;;4113;4114;1;13016;21.84;25.54;28,4;BCS1388054;5;18
009850;08.04.2021;07:58:30;Normalcharge  ;04.12.2018;FEY;;LION;49;14500;7200;192;4;95;97;8400;;4113;4113;1;13019;25.04;25.54;26,4;BCS1388054;5;18
009850;08.04.2021;07:59:28;Stop          ;04.12.2018;FEY;;LION;49;14500;7200;192;4;95;97;8400;;4113;4113;1;13018;25.04;25.94;26,7;BCS1388054;5;18
009850;08.04.2021;10:36:12;Normalcharge  ;04.12.2018;FEY;;LION;49;14500;7200;192;4;95;97;8400;;4113;4113;1;13022;25.24;26.14;28,6;BCS1388054;5;18
009850;08.04.2021;10:37:06;Stop          ;04.12.2018;FEY;;LION;49;14500;7200;192;4;95;97;8400;;4113;4113;1;13020;25.24;26.34;29,0;BCS1388054;5;18
009850;18.04.2021;08:34:16;Normalcharge  ;04.12.2018;FEY;;LION;49;14500;7200;192;4;95;97;8400;;4110;4110;1;13016;25.94;26.94;28,1;BCS1388054;5;18
009850;18.04.2021;08:34:27;Stop          ;04.12.2018;FEY;;LION;49;14500;7200;192;4;95;97;8400;;4110;4110;1;13016;25.94;27.04;28,2;BCS1388054;5;18
009850;04.08.2021;07:24:41;Normalcharge  ;04.12.2018;FEY;;LION;49;14500;7200;192;4;95;97;8400;;4080;4081;1;13018;30.04;30.94;31,5;BCS1388054;5;18
009850;04.08.2021;07:25:23;Stop          ;04.12.2018;FEY;;LION;49;14500;7200;192;4;95;97;8400;;4080;4081;1;13017;30.04;31.04;31,6;BCS1388054;5;18
009850;22.08.2021;11:37:17;Normalcharge  ;04.12.2018;FEY;;LION;49;14500;7200;192;4;95;97;8400;;4076;4076;1;12999;22.74;28.54;31,9;BCS1388054;6;5
009850;22.08.2021;11:37:57;Stop          ;04.12.2018;FEY;;LION;49;14500;7200;192;4;95;97;8400;;4076;4076;1;12871;22.84;28.74;32,0;BCS1388054;6;5
009850;12.10.2021;12:15:20;Normalcharge  ;04.12.2018;FEY;;LION;49;14500;7200;192;4;91;93;8400;3000;4061;4061;1;12999;23.54;25.74;27,9;BCS1388054;1;10
009850;12.10.2021;12:15:34;Stop          ;04.12.2018;FEY;;LION;49;14500;7200;192;4;91;93;8400;3000;4061;4061;1;12983;23.64;26.24;27,9;BCS1388054;1;10

File: 009851.txt
Serialnumber ; Date ; Time ; Action ; Date of Manufacture ; Manufacturer ; Battery Name ; Device-Chemistry ; Specification-Info ; Design-Capacity [mAh] ; Design-Voltage [mV] ; Battery Status ; Cycle Count ; SOC [%] ; Relativ SOC[%] ; Desired Voltage [mV]; Desired Current [mA]; Cell Voltage 1 [mV] ; Cell Voltage 2 [mV] ; Max_Error [%] ; Busvoltage[mV] ; Battery Temperature [°C] ; Charger Temperature [°C] ; Batterysystem ; Case ; PLace
009851;30.11.2020;09:44:38;Stop          ;04.12.2018;FEY;;LION;49;14500;7200;16576;2;99;99;;;4156;4158;1;12983;27.94;29.44;31,4;BCS1388054;2;18
009851;07.02.2021;08:46:48;Normalcharge  ;04.12.2018;FEY;;LION;49;14500;7200;16576;2;97;97;;;4123;4125;1;12996;23.84;26.14;29,2;BCS1388054;2;4
009851;07.02.2021;11:52:12;Stop          ;04.12.2018;FEY;;LION;49;14500;7200;16576;2;97;97;;;4123;4125;1;12997;26.04;27.44;29,7;BCS1388054;2;4
009851;03.03.2021;08:17:17;Normalcharge  ;04.12.2018;FEY;;LION;49;14500;7200;16576;2;95;95;;;4102;4103;1;13010;23.34;24.34;23,5;BCS1388054;2;10
009851;04.03.2021;07:53:46;Stop          ;04.12.2018;FEY;;LION;49;14500;7200;16576;2;95;95;;;4101;4102;1;12999;26.64;28.44;31,6;BCS1388054;2;10
009851;04.04.2021;11:50:39;Normalcharge  ;04.12.2018;FEY;;LION;49;14500;7200;192;2;48;49;8400;3000;3651;3651;1;12991;25.14;27.14;28,1;BCS1388054;1;2
009851;04.04.2021;11:51:54;Stop          ;04.12.2018;FEY;;LION;49;14500;7200;128;2;48;49;8400;3000;3733;3689;1;12571;25.24;30.04;28,8;BCS1388054;1;2
009851;05.04.2021;09:38:17;Charge to 60% ;04.12.2018;FEY;;LION;49;14500;7200;192;2;48;49;8400;3000;3653;3653;1;13006;25.34;25.74;26,4;BCS1388054;5;12
009851;05.04.2021;10:34:50;Charge to 60% ;04.12.2018;FEY;;LION;49;14500;7200;192;2;59;60;8400;3000;3769;3770;1;12904;28.44;28.34;32,4;BCS1388054;5;12
009851;05.04.2021;13:16:09;Stop          ;04.12.2018;FEY;;LION;49;14500;7200;192;2;59;60;8400;3000;3761;3763;1;13003;27.74;28.54;32,2;BCS1388054;5;12
009851;22.08.2021;11:37:21;Normalcharge  ;04.12.2018;FEY;;LION;49;14500;7200;192;2;52;53;8400;3000;3674;3674;1;13006;21.74;28.74;31,9;BCS1388054;5;3
009851;22.08.2021;11:38:04;Stop          ;04.12.2018;FEY;;LION;49;14500;7200;128;2;52;53;8400;3000;3740;3704;1;12756;21.84;30.54;32,0;BCS1388054;5;3
009851;25.08.2021;08:15:02;Charge to 60% ;04.12.2018;FEY;;LION;49;14500;7200;192;2;52;53;8400;3000;3677;3677;1;12998;30.54;32.74;33,2;BCS1388054;5;3
009851;25.08.2021;13:03:31;Stop          ;04.12.2018;FEY;;LION;49;14500;7200;192;2;59;60;8400;3000;3750;3750;1;12995;33.14;35.24;36,6;BCS1388054;5;3
009851;28.12.2021;09:01:29;Normalcharge  ;04.12.2018;FEY;;LION;49;14500;7200;192;3;35;35;8400;3000;3572;3572;1;13014;23.94;24.74;25,4;BCS1388054;4;10
009851;28.12.2021;09:02:38;Stop          ;04.12.2018;FEY;;LION;49;14500;7200;128;3;35;35;8400;3000;3658;3612;1;12586;23.94;27.64;25,8;BCS1388054;4;10
009851;28.12.2021;12:53:01;Stop          ;04.12.2018;FEY;;LION;49;14500;7200;192;3;59;60;8400;3000;3742;3742;1;12990;25.24;26.44;27,8;BCS1388054;4;10
009851;07.02.2022;08:50:37;Normalcharge  ;04.12.2018;FEY;;LION;49;14500;7200;192;3;57;57;8400;3000;3722;3722;1;13025;22.34;21.04;25,0;BCS1388054;7;15
009851;07.02.2022;14:21:07;Stop          ;04.12.2018;FEY;;LION;49;14500;7200;224;3;100;100;8400;;4156;4159;1;13018;25.34;25.44;28,9;BCS1388054;7;15
009851;14.03.2022;12:14:21;Normalcharge  ;04.12.2018;FEY;;LION;49;14500;7200;224;3;99;99;8400;;4130;4132;1;13009;24.24;25.54;27,5;BCS1388054;6;3
009851;14.03.2022;12:18:18;Stop          ;04.12.2018;FEY;;LION;49;14500;7200;224;3;99;99;8400;;4130;4132;1;12835;24.34;27.34;29,3;BCS1388054;6;3

File: 009854.txt
Serialnumber ; Date ; Time ; Action ; Date of Manufacture ; Manufacturer ; Battery Name ; Device-Chemistry ; Specification-Info ; Design-Capacity [mAh] ; Design-Voltage [mV] ; Battery Status ; Cycle Count ; SOC [%] ; Relativ SOC[%] ; Desired Voltage [mV]; Desired Current [mA]; Cell Voltage 1 [mV] ; Cell Voltage 2 [mV] ; Max_Error [%] ; Busvoltage[mV] ; Battery Temperature [°C] ; Charger Temperature [°C] ; Batterysystem ; Case ; PLace
009854;07.12.2020;04:14:17;Cycle         ;03.12.2018;FEY;;LION;49;14500;7200;224;3;95;100;8400;;4160;4161;1;12990;25.64;28.44;30,3;BCS1388054;1;2
009854;08.12.2020;16:19:38;Stop          ;03.12.2018;FEY;;LION;49;14500;7200;224;4;96;100;8400;;4151;4151;1;12989;27.44;29.64;31,9;BCS1388054;1;2
009854;03.03.2021;08:17:08;Normalcharge  ;03.12.2018;FEY;;LION;49;14500;7200;192;4;92;96;8400;;4098;4098;1;13008;23.14;22.74;23,5;BCS1388054;1;17
009854;04.03.2021;07:53:51;Stop          ;03.12.2018;FEY;;LION;49;14500;7200;192;4;92;96;8400;;4098;4097;1;13002;25.94;27.24;31,6;BCS1388054;1;17
009854;04.04.2021;11:50:22;Normalcharge  ;03.12.2018;FEY;;LION;49;14500;7200;192;4;92;96;8400;;4091;4091;1;12996;24.94;26.94;27,9;BCS1388054;4;3
009854;04.04.2021;11:51:36;Stop          ;03.12.2018;FEY;;LION;49;14500;7200;192;4;92;96;8400;;4091;4091;1;12721;24.94;27.34;28,6;BCS1388054;4;3
009854;22.08.2021;11:37:25;Normalcharge  ;03.12.2018;FEY;;LION;49;14500;7200;192;4;85;88;8400;3000;4012;4012;1;12994;21.24;28.24;31,9;BCS1388054;4;3
009854;22.08.2021;11:38:13;Stop          ;03.12.2018;FEY;;LION;49;14500;7200;128;4;85;88;8400;3000;4084;4051;1;12636;21.34;30.44;32,1;BCS1388054;4;3
009854;14.10.2021;12:40:13;Normalcharge  ;03.12.2018;FEY;;LION;49;14500;7200;192;4;83;87;8400;3000;3996;3996;1;13005;23.54;26.24;27,9;BCS1388054;5;12
009854;14.10.2021;12:41:50;Stop          ;03.12.2018;FEY;;LION;49;14500;7200;128;4;83;87;8400;3000;4094;4050;1;12625;23.64;28.44;28,5;BCS1388054;5;12

File: 009855.txt
Serialnumber ; Date ; Time ; Action ; Date of Manufacture ; Manufacturer ; Battery Name ; Device-Chemistry ; Specification-Info ; Design-Capacity [mAh] ; Design-Voltage [mV] ; Battery Status ; Cycle Count ; SOC [%] ; Relativ SOC[%] ; Desired Voltage [mV]; Desired Current [mA]; Cell Voltage 1 [mV] ; Cell Voltage 2 [mV] ; Max_Error [%] ; Busvoltage[mV] ; Battery Temperature [°C] ; Charger Temperature [°C] ; Batterysystem ; Case ; PLace
009855;07.12.2020;04:14:28;Cycle         ;03.12.2018;FEY;;LION;49;14500;7200;16576;2;98;98;;;4143;4142;1;13015;25.64;27.94;30,3;BCS1388054;4;16
009855;08.12.2020;16:19:56;Stop          ;03.12.2018;FEY;;LION;49;14500;7200;16576;2;98;98;;;4141;4140;1;13015;27.74;29.34;31,9;BCS1388054;4;16
009855;07.02.2021;08:46:48;Normalcharge  ;03.12.2018;FEY;;LION;49;14500;7200;16576;2;96;97;;;4118;4117;1;12984;23.64;26.34;29,2;BCS1388054;2;7
009855;07.02.2021;11:52:12;Stop          ;03.12.2018;FEY;;LION;49;14500;7200;16576;2;96;97;;;4119;4118;1;12988;25.94;27.94;29,7;BCS1388054;2;7
009855;03.03.2021;08:17:40;Normalcharge  ;03.12.2018;FEY;;LION;49;14500;7200;192;3;69;70;8400;3000;3856;3856;1;13006;23.24;23.64;23,6;BCS1388054;6;14
009855;03.03.2021;11:56:52;Stop          ;03.12.2018;FEY;;LION;49;14500;7200;224;3;99;100;8400;;4157;4157;1;12999;28.84;30.24;31,7;BCS1388054;6;14
009855;04.04.2021;11:50:10;Normalcharge  ;03.12.2018;FEY;;LION;49;14500;7200;224;3;98;99;8400;;4133;4133;1;12994;25.04;25.54;27,8;BCS1388054;5;13
009855;04.04.2021;11:51:30;Stop          ;03.12.2018;FEY;;LION;49;14500;7200;224;3;98;99;8400;;4133;4133;1;12674;25.04;25.94;28,5;BCS1388054;5;13
009855;22.08.2021;11:37:25;Normalcharge  ;03.12.2018;FEY;;LION;49;14500;7200;192;3;75;78;8400;3000;3907;3907;1;13001;21.14;28.44;31,9;BCS1388054;4;7
009855;22.08.2021;11:38:13;Stop          ;03.12.2018;FEY;;LION;49;14500;7200;128;3;75;78;8400;3000;3974;3939;1;12642;21.34;30.34;32,1;BCS1388054;4;7
009855;14.10.2021;12:40:13;Normalcharge  ;03.12.2018;FEY;;LION;49;14500;7200;192;3;75;78;8400;3000;3896;3896;1;13015;23.44;25.54;27,9;BCS1388054;5;17
009855;14.10.2021;12:41:50;Stop          ;03.12.2018;FEY;;LION;49;14500;7200;128;3;76;79;8400;3000;3993;3945;1;12630;23.54;29.44;28,5;BCS1388054;5;17