Folder: Battery_sort_V2/reader/Batterieverzeichnis_new (part 13)

File: 009752.txt
Serialnumber ; Date ; Time ; Action ; Date of Manufacture ; Manufacturer ; Battery Name ; Device-Chemistry ; Specification-Info ; Design-Capacity [mAh] ; Design-Voltage [mV] ; Battery Status ; Cycle Count ; SOC [%] ; Relativ SOC[%] ; Desired Voltage [mV]; Desired Current [mA]; Cell Voltage 1 [mV] ; Cell Voltage 2 [mV] ; Max_Error [%] ; Busvoltage[mV] ; Battery Temperature [°C] ; Charger Temperature [°C] ; Batterysystem ; Case ; PLace
009752;07.12.2020;04:14:36;Cycle         ;04.12.2018;FEY;;LION;49;14500;7200;192;2;94;97;8400;;4125;4125;1;12996;25.54;28.44;30,3;BCS1388054;6;14
009752;08.12.2020;16:20:13;Stop          ;04.12.2018;FEY;;LION;49;14500;7200;192;2;94;97;8400;;4124;4124;1;12997;27.74;30.14;31,9;BCS1388054;6;14
009752;07.02.2021;08:46:59;Normalcharge  ;04.12.2018;FEY;;LION;49;14500;7200;192;2;90;93;8400;3000;4088;4087;1;13011;23.44;25.44;29,2;BCS1388054;4;4
009752;07.02.2021;11:52:20;Stop          ;04.12.2018;FEY;;LION;49;14500;7200;224;2;97;100;8400;;4151;4151;1;13011;25.74;26.44;29,7;BCS1388054;4;4
009752;03.03.2021;08:17:21;Normalcharge  ;04.12.2018;FEY;;LION;49;14500;7200;192;2;89;94;8400;3000;4081;4081;1;13011;23.04;22.54;23,5;BCS1388054;3;2
009752;04.03.2021;07:53:39;Stop           ;04.12.2018;FEY;;LION;49;14500;7200;224;2;95;100;8400;;4148;4148;1;13005;26.34;27.94;31,5;BCS1388054;3;2
009752;04.04.2021;11:50:02;Normalcharge  ;04.12.2018;FEY;;LION;49;14500;7200;192;2;58;61;8400;3000;3759;3759;1;13002;24.84;26.04;27,7;BCS1388054;6;14
009752;04.04.2021;11:51:24;Stop          ;04.12.2018;FEY;;LION;49;14500;7200;128;2;58;61;8400;3000;3852;3804;1;12664;24.84;29.64;28,5;BCS1388054;6;14
009752;05.04.2021;09:37:37;Charge to 60% ;04.12.2018;FEY;;LION;49;14500;7200;192;2;58;61;8400;3000;3763;3763;1;13008;24.94;25.64;26,0;BCS1388054;1;7
009752;05.04.2021;10:01:53;Stop          ;04.12.2018;FEY;;LION;49;14500;7200;192;2;57;60;8400;3000;3741;3741;1;13004;25.84;28.54;31,2;BCS1388054;1;7
009752;22.08.2021;11:37:30;Normalcharge  ;04.12.2018;FEY;;LION;49;14500;7200;192;2;51;54;8400;3000;3680;3681;1;12999;21.34;28.64;31,9;BCS1388054;3;18
009752;22.08.2021;11:38:19;Stop           ;04.12.2018;FEY;;LION;49;14500;7200;128;2;51;54;8400;3000;3767;3720;1;12550;21.54;30.64;32,1;BCS1388054;3;18
009752;25.08.2021;08:15:15;Ladung auf 60% ;04.12.2018;FEY;;LION;49;14500;7200;192;2;51;54;8400;3000;3683;3684;1;12997;30.34;31.34;33,4;BCS1388054;3;18
009752;25.08.2021;08:40:44;Stop           ;04.12.2018;FEY;;LION;49;14500;7200;128;2;57;60;8400;3000;3837;3789;1;12995;32.54;40.34;36,1;BCS1388054;3;18
009752;01.11.2021;09:52:00;Normalcharge  ;04.12.2018;FEY;;LION;49;14500;7200;192;2;54;57;8400;3000;3711;3712;1;12993;25.64;26.74;26,3;BCS1388054;5;7
009752;01.11.2021;09:53:40;Stop          ;04.12.2018;FEY;;LION;49;14500;7200;128;2;54;57;8400;3000;3802;3755;1;12584;25.64;30.54;27,3;BCS1388054;5;7
009752;01.11.2021;10:02:19;Normalcharge  ;04.12.2018;FEY;;LION;49;14500;7200;192;2;54;57;8400;3000;3716;3716;1;12989;25.84;28.84;29,5;BCS1388054;5;7
009752;01.11.2021;10:03:11;Stop          ;04.12.2018;FEY;;LION;49;14500;7200;128;2;54;57;8400;3000;3799;3754;1;12581;25.84;30.94;29,3;BCS1388054;5;7
009752;01.11.2021;10:27:35;Normalcharge  ;04.12.2018;FEY;;LION;49;14500;7200;192;2;54;57;8400;3000;3717;3718;1;12997;26.14;27.44;27,8;BCS1388054;5;7
009752;01.11.2021;10:29:14;Stop          ;04.12.2018;FEY;;LION;49;14500;7200;128;2;55;58;8400;3000;3806;3760;1;12588;26.14;31.24;28,6;BCS1388054;5;7
009752;01.11.2021;10:32:33;Charge to 60% ;04.12.2018;FEY;;LION;49;14500;7200;192;2;55;58;8400;3000;3721;3722;1;12994;26.24;29.04;29,9;BCS1388054;5;7
009752;01.11.2021;11:11:47;Stop          ;04.12.2018;FEY;;LION;49;14500;7200;192;2;57;60;8400;3000;3748;3748;1;12995;27.64;30.94;32,5;BCS1388054;5;7
009752;09.02.2022;08:16:53;Normalcharge  ;04.12.2018;FEY;;LION;49;14500;7200;192;3;34;36;8400;3000;3589;3589;1;13007;22.24;21.94;23,1;BCS1388054;1;10
009752;09.02.2022;13:56:48;Stop          ;04.12.2018;FEY;;LION;49;14500;7200;128;3;93;100;8400;3000;4180;4172;1;12965;25.64;27.54;29,9;BCS1388054;1;10
009752;14.03.2022;12:14:36;Normalcharge  ;04.12.2018;FEY;;LION;49;14500;7200;192;3;92;99;8400;3000;4125;4123;1;13002;24.34;25.14;27,7;BCS1388054;3;2
009752;14.03.2022;12:18:51;Stop           ;04.12.2018;FEY;;LION;49;14500;7200;128;3;92;99;8400;3000;4180;4162;1;12967;24.44;28.34;29,5;BCS1388054;3;2
009752;29.03.2022;08:21:11;Normalcharge  ;04.12.2018;FEY;;LION;49;14500;7200;192;3;71;75;8400;3000;3892;3891;1;13001;24.64;26.24;25,8;BCS1388054;1;15
009752;29.03.2022;08:21:52;Stop          ;04.12.2018;FEY;;LION;49;14500;7200;128;3;71;75;8400;3000;3975;3927;1;12688;24.64;28.14;26,0;BCS1388054;1;15
009752;29.03.2022;08:22:01;Normalcharge  ;04.12.2018;FEY;;LION;49;14500;7200;128;3;71;75;8400;3000;3897;3897;1;12998;24.64;28.24;26,1;BCS1388054;1;15
009752;29.03.2022;08:22:51;Stop          ;04.12.2018;FEY;;LION;49;14500;7200;128;3;71;75;8400;3000;3981;3933;1;12689;24.74;29.54;26,6;BCS1388054;1;15
009752;17.05.2022;08:54:20;Normalcharge  ;04.12.2018;FEY;;LION;49;14500;7200;192;3;71;75;8400;3000;3883;3883;1;13007;28.34;29.64;30,8;BCS1388054;4;8
009752;17.05.2022;13:04:14;Stop          ;04.12.2018;FEY;;LION;49;14500;7200;224;3;95;100;8400;;4158;4157;1;13003;32.64;33.04;34,0;BCS1388054;4;8

File: 009753.txt
Serialnumber ; Date ; Time ; Action ; Date of Manufacture ; Manufacturer ; Battery Name ; Device-Chemistry ; Specification-Info ; Design-Capacity [mAh] ; Design-Voltage [mV] ; Battery Status ; Cycle Count ; SOC [%] ; Relativ SOC[%] ; Desired Voltage [mV]; Desired Current [mA]; Cell Voltage 1 [mV] ; Cell Voltage 2 [mV] ; Max_Error [%] ; Busvoltage[mV] ; Battery Temperature [°C] ; Charger Temperature [°C] ; Batterysystem ; Case ; PLace
009753;07.12.2020;04:14:36;Cycle         ;04.12.2018;FEY;;LION;49;14500;7200;16576;4;97;98;;;4152;4154;1;13003;25.64;27.04;30,3;BCS1388054;6;4
009753;08.12.2020;16:20:13;Stop          ;04.12.2018;FEY;;LION;49;14500;7200;16576;4;97;99;;;4149;4151;1;13003;27.74;28.54;31,9;BCS1388054;6;4
009753;07.02.2021;08:47:00;Normalcharge  ;04.12.2018;FEY;;LION;49;14500;7200;16576;4;90;92;;;4071;4072;1;13016;23.44;26.04;29,2;BCS1388054;4;16
009753;07.02.2021;11:52:20;Stop          ;04.12.2018;FEY;;LION;49;14500;7200;16576;4;90;92;;;4071;4073;1;13016;25.84;27.24;29,7;BCS1388054;4;16
009753;03.03.2021;08:17:29;Normalcharge  ;04.12.2018;FEY;;LION;49;14500;7200;192;4;85;87;8400;3000;4020;4022;1;13011;23.14;23.74;23,5;BCS1388054;4;12
009753;03.03.2021;10:32:46;Stop          ;04.12.2018;FEY;;LION;49;14500;7200;224;4;98;100;8400;;4155;4158;1;13008;28.04;28.04;32,0;BCS1388054;4;12
009753;04.04.2021;11:50:22;Normalcharge  ;04.12.2018;FEY;;LION;49;14500;7200;192;5;50;52;8400;3000;3672;3673;1;13011;25.14;25.84;27,9;BCS1388054;4;8
009753;04.04.2021;11:51:36;Stop          ;04.12.2018;FEY;;LION;49;14500;7200;128;5;51;53;8400;3000;3758;3710;1;12722;25.14;28.64;28,6;BCS1388054;4;8
009753;05.04.2021;09:38:11;Charge to 60% ;04.12.2018;FEY;;LION;49;14500;7200;192;5;51;53;8400;3000;3674;3674;1;13019;25.04;26.54;26,3;BCS1388054;4;16
009753;05.04.2021;10:13:52;Stop          ;04.12.2018;FEY;;LION;49;14500;7200;192;5;57;60;8400;3000;3753;3754;1;13015;27.84;30.64;32,1;BCS1388054;4;16
009753;22.08.2021;11:37:25;Normalcharge  ;04.12.2018;FEY;;LION;49;14500;7200;192;5;48;50;8400;3000;3639;3639;1;12998;21.84;28.04;31,9;BCS1388054;4;17
009753;22.08.2021;11:38:13;Stop          ;04.12.2018;FEY;;LION;49;14500;7200;128;5;48;50;8400;3000;3713;3672;1;12602;21.94;30.04;32,1;BCS1388054;4;17
009753;25.08.2021;08:15:08;Charge to 60% ;04.12.2018;FEY;;LION;49;14500;7200;192;5;47;49;8400;3000;3641;3641;1;12996;30.44;31.64;33,4;BCS1388054;4;17
009753;25.08.2021;12:59:17;Stop          ;04.12.2018;FEY;;LION;49;14500;7200;192;5;58;60;8400;3000;3730;3731;1;12996;32.64;33.84;36,6;BCS1388054;4;17
009753;01.11.2021;09:52:20;Normalcharge  ;04.12.2018;FEY;;LION;49;14500;7200;192;5;54;56;8400;3000;3702;3703;1;12993;25.84;26.24;26,4;BCS1388054;1;5
009753;01.11.2021;09:53:13;Stop          ;04.12.2018;FEY;;LION;49;14500;7200;128;5;54;56;8400;3000;3788;3741;1;12467;25.94;28.14;26,8;BCS1388054;1;5
009753;01.11.2021;10:01:59;Normalcharge  ;04.12.2018;FEY;;LION;49;14500;7200;192;5;54;56;8400;3000;3704;3705;1;12988;26.04;27.14;29,5;BCS1388054;1;5
009753;01.11.2021;10:03:29;Stop          ;04.12.2018;FEY;;LION;49;14500;7200;128;5;54;56;8400;3000;3797;3749;1;12456;26.14;29.44;29,3;BCS1388054;1;5
009753;01.11.2021;10:27:58;Normalcharge  ;04.12.2018;FEY;;LION;49;14500;7200;192;5;54;56;8400;3000;3707;3708;1;12990;26.24;26.64;27,8;BCS1388054;1;5
009753;01.11.2021;10:28:31;Stop          ;04.12.2018;FEY;;LION;49;14500;7200;128;5;54;56;8400;3000;3732;3719;1;12671;26.24;27.54;28,1;BCS1388054;1;5
009753;01.11.2021;10:31:48;Charge to 60% ;04.12.2018;FEY;;LION;49;14500;7200;192;5;54;56;8400;3000;3708;3709;1;12990;26.34;25.24;29,9;BCS1388054;1;5
009753;01.11.2021;11:39:51;Stop          ;04.12.2018;FEY;;LION;49;14500;7200;192;5;58;60;8400;3000;3747;3749;1;12989;27.84;28.24;32,5;BCS1388054;1;5
009753;09.02.2022;08:16:56;Normalcharge  ;04.12.2018;FEY;;LION;49;14500;7200;192;5;54;56;8400;3000;3707;3707;1;12993;22.64;23.14;23,1;BCS1388054;2;18
009753;09.02.2022;12:43:52;Stop          ;04.12.2018;FEY;;LION;49;14500;7200;224;5;97;100;8400;;4162;4165;1;12987;25.44;27.34;29,9;BCS1388054;2;18

File: 009754.txt
Serialnumber ; Date ; Time ; Action ; Date of Manufacture ; Manufacturer ; Battery Name ; Device-Chemistry ; Specification-Info ; Design-Capacity [mAh] ; Design-Voltage [mV] ; Battery Status ; Cycle Count ; SOC [%] ; Relativ SOC[%] ; Desired Voltage [mV]; Desired Current [mA]; Cell Voltage 1 [mV] ; Cell Voltage 2 [mV] ; Max_Error [%] ; Busvoltage[mV] ; Battery Temperature [°C] ; Charger Temperature [°C] ; Batterysystem ; Case ; PLace
009754;01.12.2020;07:00:16;Cycle         ;04.12.2018;FEY;;LION;49;14500;7200;16576;2;98;100;;;4165;4166;1;12996;25.64;25.64;26,7;BCS1388054;1;2
009754;01.12.2020;11:17:17;Stop          ;04.12.2018;FEY;;LION;49;14500;7200;16576;2;98;100;;;4165;4166;1;12991;26.94;28.84;28,8;BCS1388054;1;2
009754;07.02.2021;08:46:54;Normalcharge  ;04.12.2018;FEY;;LION;49;14500;7200;16576;2;93;95;;;4100;4100;1;13009;23.74;26.44;29,2;BCS1388054;3;13
009754;07.02.2021;11:52:16;Stop           ;04.12.2018;FEY;;LION;49;14500;7200;16576;2;93;95;;;4100;4100;1;13010;26.04;28.24;29,7;BCS1388054;3;13
009754;03.03.2021;08:17:29;Normalcharge  ;04.12.2018;FEY;;LION;49;14500;7200;192;2;84;86;8400;3000;4006;4007;1;13021;23.34;23.94;23,5;BCS1388054;4;16
009754;03.03.2021;10:32:46;Stop          ;04.12.2018;FEY;;LION;49;14500;7200;224;2;98;100;8400;;4157;4158;1;13016;28.44;29.64;32,0;BCS1388054;4;16
009754;04.04.2021;11:50:10;Normalcharge  ;04.12.2018;FEY;;LION;49;14500;7200;192;3;51;53;8400;3000;3680;3680;1;13013;25.04;26.94;27,8;BCS1388054;5;15
009754;04.04.2021;11:51:30;Stop          ;04.12.2018;FEY;;LION;49;14500;7200;128;3;51;54;8400;3000;3770;3720;1;12671;25.14;30.04;28,5;BCS1388054;5;15
009754;05.04.2021;09:38:11;Charge to 60% ;04.12.2018;FEY;;LION;49;14500;7200;192;3;51;54;8400;3000;3682;3682;1;13007;25.24;25.64;26,3;BCS1388054;4;17
009754;05.04.2021;10:13:52;Stop          ;04.12.2018;FEY;;LION;49;14500;7200;192;3;57;60;8400;3000;3751;3753;1;13003;27.74;29.84;32,1;BCS1388054;4;17
009754;22.08.2021;11:37:30;Normalcharge  ;04.12.2018;FEY;;LION;49;14500;7200;192;3;53;55;8400;3000;3695;3695;1;13000;21.84;29.34;31,9;BCS1388054;3;13
009754;22.08.2021;11:38:19;Stop           ;04.12.2018;FEY;;LION;49;14500;7200;128;3;53;55;8400;3000;3779;3733;1;12570;22.04;31.54;32,1;BCS1388054;3;13
009754;25.08.2021;08:15:15;Ladung auf 60% ;04.12.2018;FEY;;LION;49;14500;7200;192;3;53;55;8400;3000;3697;3697;1;12997;30.64;32.74;33,4;BCS1388054;3;13
009754;25.08.2021;08:40:44;Stop           ;04.12.2018;FEY;;LION;49;14500;7200;192;3;57;60;8400;3000;3751;3753;1;12997;32.64;36.74;36,1;BCS1388054;3;13

File: 009755.txt
Serialnumber ; Date ; Time ; Action ; Date of Manufacture ; Manufacturer ; Battery Name ; Device-Chemistry ; Specification-Info ; Design-Capacity [mAh] ; Design-Voltage [mV] ; Battery Status ; Cycle Count ; SOC [%] ; Relativ SOC[%] ; Desired Voltage [mV]; Desired Current [mA]; Cell Voltage 1 [mV] ; Cell Voltage 2 [mV] ; Max_Error [%] ; Busvoltage[mV] ; Battery Temperature [°C] ; Charger Temperature [°C] ; Batterysystem ; Case ; PLace
009755;12.01.2021;04:16:00;Charge to 90% ;04.12.2018;FEY;;LION;49;14500;7200;16576;2;98;98;;;4131;4131;1;13013;23.24;22.34;23,0;BCS1388054;1;6
009755;12.01.2021;04:16:03;Stop          ;04.12.2018;FEY;;LION;49;14500;7200;16576;2;98;98;;;4131;4131;1;13013;23.24;23.64;23,0;BCS1388054;1;6
009755;12.01.2021;04:17:15;Charge to 90% ;04.12.2018;FEY;;LION;49;14500;7200;16576;2;98;98;;;4131;4132;1;13011;23.34;24.14;23,5;BCS1388054;1;6
009755;12.01.2021;04:55:18;Stop          ;04.12.2018;FEY;;LION;49;14500;7200;192;2;90;90;8400;3000;3949;3999;1;13006;27.34;31.54;31,7;BCS1388054;1;6
009755;12.01.2021;05:21:33;Cycle         ;04.12.2018;FEY;;LION;49;14500;7200;192;2;90;90;8400;3000;4054;4054;1;13007;27.24;27.34;30,6;BCS1388054;1;6
009755;13.01.2021;08:18:34;Stop          ;04.12.2018;FEY;;LION;49;14500;7200;224;3;97;99;8400;;4154;4155;1;13006;26.74;27.34;30,7;BCS1388054;1;6
009755;06.04.2021;08:38:50;Normalcharge  ;04.12.2018;FEY;;LION;49;14500;7200;192;3;95;98;8400;;4115;4115;1;13005;20.94;24.04;28,1;BCS1388054;3;11
009755;06.04.2021;08:39:42;Stop           ;04.12.2018;FEY;;LION;49;14500;7200;192;3;95;98;8400;;4115;4115;1;13003;21.04;24.24;28,2;BCS1388054;3;11
009755;08.04.2021;07:58:01;Normalcharge  ;04.12.2018;FEY;;LION;49;14500;7200;192;3;95;98;8400;;4115;4115;1;13006;25.54;24.44;26,4;BCS1388054;3;11
009755;08.04.2021;07:59:40;Stop           ;04.12.2018;FEY;;LION;49;14500;7200;192;3;95;98;8400;;4115;4115;1;13004;25.54;24.84;26,8;BCS1388054;3;11
009755;08.04.2021;10:35:05;Normalcharge  ;04.12.2018;FEY;;LION;49;14500;7200;192;3;95;98;8400;;4115;4115;1;13006;25.74;24.74;28,1;BCS1388054;3;11
009755;08.04.2021;10:36:56;Stop           ;04.12.2018;FEY;;LION;49;14500;7200;192;3;95;98;8400;;4115;4115;1;13003;25.74;25.24;29,0;BCS1388054;3;11
009755;18.04.2021;08:33:50;Normalcharge  ;04.12.2018;FEY;;LION;49;14500;7200;192;3;95;97;8400;;4112;4112;1;13003;26.44;25.64;27,8;BCS1388054;3;11
009755;18.04.2021;08:33:58;Stop           ;04.12.2018;FEY;;LION;49;14500;7200;192;3;95;97;8400;;4112;4112;1;13003;26.44;25.64;27,9;BCS1388054;3;11
009755;04.08.2021;07:24:50;Normalcharge  ;04.12.2018;FEY;;LION;49;14500;7200;192;3;93;96;8400;;4084;4084;1;12998;30.64;29.84;31,6;BCS1388054;3;11
009755;04.08.2021;07:25:37;Stop           ;04.12.2018;FEY;;LION;49;14500;7200;192;3;93;96;8400;;4084;4085;1;12997;30.64;30.04;31,7;BCS1388054;3;11
009755;22.08.2021;11:07:59;Normalcharge  ;04.12.2018;FEY;;LION;49;14500;7200;192;3;65;67;8400;3000;3827;3827;1;12994;23.04;29.34;32,1;BCS1388054;3;6
009755;22.08.2021;11:08:33;Stop           ;04.12.2018;FEY;;LION;49;14500;7200;128;3;65;67;8400;3000;3877;3850;1;12687;23.14;30.34;32,4;BCS1388054;3;6

File: 009759.txt
Serialnumber ; Date ; Time ; Action ; Date of Manufacture ; Manufacturer ; Battery Name ; Device-Chemistry ; Specification-Info ; Design-Capacity [mAh] ; Design-Voltage [mV] ; Battery Status ; Cycle Count ; SOC [%] ; Relativ SOC[%] ; Desired Voltage [mV]; Desired Current [mA]; Cell Voltage 1 [mV] ; Cell Voltage 2 [mV] ; Max_Error [%] ; Busvoltage[mV] ; Battery Temperature [°C] ; Charger Temperature [°C] ; Batterysystem ; Case ; PLace
009759;30.11.2020;09:42:55;Stop          ;04.12.2018;FEY;;LION;49;14500;7200;16576;3;98;98;;;4133;4133;1;13032;27.64;28.74;31,7;BCS1388054;7;14
009759;12.01.2021;04:16:00;Charge to 90% ;04.12.2018;FEY;;LION;49;14500;7200;16576;3;96;97;;;4117;4117;1;13013;23.04;21.44;23,0;BCS1388054;1;7
009759;12.01.2021;04:16:03;Stop          ;04.12.2018;FEY;;LION;49;14500;7200;16576;3;96;97;;;4117;4117;1;13013;23.04;22.54;23,0;BCS1388054;1;7
009759;12.01.2021;04:17:15;Charge to 90% ;04.12.2018;FEY;;LION;49;14500;7200;16576;3;96;97;;;4117;4117;1;13011;23.04;23.24;23,5;BCS1388054;1;7
009759;12.01.2021;04:55:18;Stop          ;04.12.2018;FEY;;LION;49;14500;7200;192;3;90;90;8400;3000;4051;4050;1;13006;26.54;29.94;31,7;BCS1388054;1;7
009759;12.01.2021;05:21:33;Cycle         ;04.12.2018;FEY;;LION;49;14500;7200;192;3;90;90;8400;3000;4056;4055;1;13007;26.74;27.84;30,6;BCS1388054;1;7
009759;13.01.2021;08:18:34;Stop          ;04.12.2018;FEY;;LION;49;14500;7200;224;4;97;100;8400;;4155;4155;1;13007;26.84;27.74;30,7;BCS1388054;1;7
009759;21.02.2021;13:43:19;Normalcharge  ;04.12.2018;FEY;;LION;49;14500;7200;192;5;62;64;8400;3000;3785;3785;1;13001;23.64;25.04;27,5;BCS1388054;1;17
009759;22.02.2021;17:08:49;Stop          ;04.12.2018;FEY;;LION;49;14500;7200;224;5;98;100;8400;;4148;4149;1;13002;25.94;26.94;30,0;BCS1388054;1;17
009759;06.04.2021;08:38:50;Normalcharge  ;04.12.2018;FEY;;LION;49;14500;7200;224;5;96;99;8400;;4128;4128;1;13010;20.94;25.04;28,1;BCS1388054;3;5
009759;06.04.2021;08:39:42;Stop           ;04.12.2018;FEY;;LION;49;14500;7200;224;5;96;99;8400;;4128;4128;1;13008;21.04;25.24;28,2;BCS1388054;3;5
009759;08.04.2021;07:58:01;Normalcharge  ;04.12.2018;FEY;;LION;49;14500;7200;224;5;96;99;8400;;4128;4128;1;13011;25.24;25.24;26,4;BCS1388054;3;5
009759;08.04.2021;07:59:40;Stop           ;04.12.2018;FEY;;LION;49;14500;7200;224;5;96;99;8400;;4128;4128;1;13008;25.24;25.94;26,8;BCS1388054;3;5
009759;08.04.2021;10:35:05;Normalcharge  ;04.12.2018;FEY;;LION;49;14500;7200;224;5;96;99;8400;;4128;4128;1;13010;25.44;25.54;28,1;BCS1388054;3;5
009759;08.04.2021;10:36:56;Stop           ;04.12.2018;FEY;;LION;49;14500;7200;224;5;96;99;8400;;4128;4128;1;13008;25.54;26.34;29,0;BCS1388054;3;5
009759;18.04.2021;08:33:50;Normalcharge  ;04.12.2018;FEY;;LION;49;14500;7200;224;5;96;99;8400;;4124;4124;1;13009;26.14;26.64;27,8;BCS1388054;3;5
009759;18.04.2021;08:33:58;Stop           ;04.12.2018;FEY;;LION;49;14500;7200;224;5;96;99;8400;;4124;4124;1;13008;26.14;26.74;27,9;BCS1388054;3;5
009759;04.08.2021;07:24:50;Normalcharge  ;04.12.2018;FEY;;LION;49;14500;7200;192;5;94;96;8400;;4093;4093;1;13003;30.34;30.84;31,6;BCS1388054;3;5
009759;04.08.2021;07:25:37;Stop           ;04.12.2018;FEY;;LION;49;14500;7200;192;5;94;96;8400;;4093;4093;1;13003;30.34;31.04;31,7;BCS1388054;3;5
009759;22.08.2021;11:37:12;Normalcharge  ;04.12.2018;FEY;;LION;49;14500;7200;192;5;94;96;8400;;4088;4088;1;13022;23.24;29.24;31,9;BCS1388054;7;2
009759;22.08.2021;11:37:48;Stop          ;04.12.2018;FEY;;LION;49;14500;7200;192;5;94;96;8400;;4088;4088;1;13004;23.24;29.54;31,9;BCS1388054;7;2
009759;12.10.2021;12:59:04;Normalcharge  ;04.12.2018;FEY;;LION;49;14500;7200;192;5;88;91;8400;3000;4043;4043;1;13033;23.64;26.04;28,5;BCS1388054;7;14
009759;12.10.2021;12:59:37;Stop          ;04.12.2018;FEY;;LION;49;14500;7200;192;5;88;91;8400;3000;4043;4044;1;12944;23.74;27.24;28,6;BCS1388054;7;14
009759;14.10.2021;12:40:13;Normalcharge  ;04.12.2018;FEY;;LION;49;14500;7200;192;5;88;91;8400;3000;4043;4043;1;12999;23.54;25.64;27,9;BCS1388054;5;14
009759;14.10.2021;12:41:50;Stop          ;04.12.2018;FEY;;LION;49;14500;7200;128;5;88;91;8400;3000;4119;4089;1;12639;23.64;29.24;28,5;BCS1388054;5;14
009759;14.03.2022;12:14:16;Normalcharge  ;04.12.2018;FEY;;LION;49;14500;7200;192;6;24;25;8400;3000;3503;3504;1;13027;24.14;24.74;27,4;BCS1388054;7;13
009759;14.03.2022;12:18:09;Stop          ;04.12.2018;FEY;;LION;49;14500;7200;128;6;25;25;8400;3000;3605;3560;1;12807;24.34;31.04;29,3;BCS1388054;7;13
009759;05.04.2022;09:15:59;Charge to 60% ;04.12.2018;FEY;;LION;49;14500;7200;192;6;25;26;8400;3000;3509;3509;1;13014;25.44;26.84;26,7;BCS1388054;6;17
009759;05.04.2022;12:05:14;Stop          ;04.12.2018;FEY;;LION;49;14500;7200;192;6;58;60;8400;3000;3751;3754;1;12992;28.04;29.44;28,9;BCS1388054;6;17
009759;17.05.2022;08:54:36;Normalcharge  ;04.12.2018;FEY;;LION;49;14500;7200;192;6;56;58;8400;3000;3724;3725;1;13020;28.84;30.04;31,0;BCS1388054;7;3
009759;17.05.2022;13:41:52;Stop          ;04.12.2018;FEY;;LION;49;14500;7200;224;6;98;100;8400;;4159;4160;1;12947;33.14;34.14;34,0;BCS1388054;7;3

File: 009764.txt
Serialnumber ; Date ; Time ; Action ; Date of Manufacture ; Manufacturer ; Battery Name ; Device-Chemistry ; Specification-Info ; Design-Capacity [mAh] ; Design-Voltage [mV] ; Battery Status ; Cycle Count ; SOC [%] ; Relativ SOC[%] ; Desired Voltage [mV]; Desired Current [mA]; Cell Voltage 1 [mV] ; Cell Voltage 2 [mV] ; Max_Error [%] ; Busvoltage[mV] ; Battery Temperature [°C] ; Charger Temperature [°C] ; Batterysystem ; Case ; PLace
009764;07.12.2020;04:14:40;Cycle         ;04.12.2018;FEY;;LION;49;14500;7200;192;3;95;95;8400;3000;4101;4101;1;13018;25.64;26.84;30,3;BCS1388054;7;15
009764;08.12.2020;16:20:20;Stop          ;04.12.2018;FEY;;LION;49;14500;7200;224;4;97;100;8400;;4153;4152;1;13018;27.74;28.34;31,9;BCS1388054;7;15
009764;03.03.2021;08:17:46;Normalcharge  ;04.12.2018;FEY;;LION;49;14500;7200;192;4;56;57;8400;3000;3721;3721;1;13031;23.24;23.34;23,6;BCS1388054;7;7
009764;03.03.2021;10:54:05;Stop          ;04.12.2018;FEY;;LION;49;14500;7200;128;4;88;90;8400;3000;4149;4103;1;12710;30.54;35.44;31,4;BCS1388054;7;7
009764;03.03.2021;10:55:49;Normalcharge  ;04.12.2018;FEY;;LION;49;14500;7200;192;4;88;90;8400;3000;4062;4063;1;13026;30.44;32.54;30,6;BCS1388054;7;7
009764;03.03.2021;17:03:24;Stop          ;04.12.2018;FEY;;LION;49;14500;7200;224;4;98;100;8400;;4153;4153;1;13025;26.44;27.74;31,4;BCS1388054;7;7
009764;04.04.2021;11:49:55;Normalcharge  ;04.12.2018;FEY;;LION;49;14500;7200;224;4;96;99;8400;;4132;4131;1;13032;25.14;26.44;27,5;BCS1388054;7;8
009764;04.04.2021;11:51:17;Stop          ;04.12.2018;FEY;;LION;49;14500;7200;224;4;96;99;8400;;4132;4132;1;12757;25.14;26.94;28,4;BCS1388054;7;8
009764;22.08.2021;11:37:25;Normalcharge  ;04.12.2018;FEY;;LION;49;14500;7200;2768;6;;;8400;3000;2639;2614;1;13012;20.94;28.04;31,9;BCS1388054;4;4
009764;22.08.2021;11:38:13;Stop          ;04.12.2018;FEY;;LION;49;14500;7200;2768;6;;;8400;3000;2639;2614;1;12650;21.04;29.74;32,1;BCS1388054;4;4
009764;25.08.2021;08:15:08;Charge to 60% ;04.12.2018;FEY;;LION;49;14500;7200;2768;6;;;8400;3000;2640;2624;1;13005;30.44;31.74;33,4;BCS1388054;4;4
009764;25.08.2021;12:59:17;Stop          ;04.12.2018;FEY;;LION;49;14500;7200;128;6;56;60;8400;3000;3779;3783;1;13003;34.84;37.44;36,6;BCS1388054;4;4
009764;01.11.2021;09:52:15;Normalcharge  ;04.12.2018;FEY;;LION;49;14500;7200;192;6;52;56;8400;3000;3712;3713;1;12999;25.84;25.64;26,3;BCS1388054;2;11
009764;01.11.2021;09:53:18;Stop          ;04.12.2018;FEY;;LION;49;14500;7200;128;6;52;56;8400;3000;3801;3754;1;12504;25.94;28.04;26,8;BCS1388054;2;11
009764;01.11.2021;10:02:05;Normalcharge  ;04.12.2018;FEY;;LION;49;14500;7200;192;6;52;56;8400;3000;3715;3716;1;12993;26.04;26.74;29,5;BCS1388054;2;11
009764;01.11.2021;10:03:24;Stop          ;04.12.2018;FEY;;LION;49;14500;7200;128;6;53;56;8400;3000;3807;3759;1;12490;26.14;29.14;29,3;BCS1388054;2;11
009764;01.11.2021;10:18:11;Normalcharge  ;04.12.2018;FEY;;LION;49;14500;7200;192;6;53;56;8400;3000;3718;3719;1;12994;26.24;26.64;28,4;BCS1388054;2;11
009764;01.11.2021;10:18:48;Stop          ;04.12.2018;FEY;;LION;49;14500;7200;128;6;53;56;8400;3000;3776;3745;1;12598;26.34;27.74;28,2;BCS1388054;2;11
009764;01.11.2021;10:28:53;Normalcharge  ;04.12.2018;FEY;;LION;49;14500;7200;192;6;53;56;8400;3000;3719;3720;1;12994;26.34;26.74;28,2;BCS1388054;2;11
009764;01.11.2021;10:29:00;Stop          ;04.12.2018;FEY;;LION;49;14500;7200;192;6;53;56;8400;3000;3719;3720;1;12981;26.34;26.74;28,4;BCS1388054;2;11
009764;01.11.2021;11:53:40;Stop          ;04.12.2018;FEY;;LION;49;14500;7200;192;6;56;60;8400;3000;3773;3776;1;12993;28.24;28.64;32,5;BCS1388054;2;11
009764;09.02.2022;08:16:46;Normalcharge  ;04.12.2018;FEY;;LION;49;14500;7200;192;6;53;56;8400;3000;3714;3715;1;12997;22.54;22.84;23,1;BCS1388054;3;8
009764;09.02.2022;12:49:54;Stop           ;04.12.2018;FEY;;LION;49;14500;7200;224;6;94;100;8400;;4160;4159;1;12993;26.74;27.44;29,9;BCS1388054;3;8
009764;14.03.2022;12:14:21;Normalcharge  ;04.12.2018;FEY;;LION;49;14500;7200;224;6;92;99;8400;;4129;4128;1;13002;24.24;24.24;27,5;BCS1388054;6;12
009764;14.03.2022;12:18:18;Stop          ;04.12.2018;FEY;;LION;49;14500;7200;224;6;92;99;8400;;4129;4128;1;12834;24.34;24.64;29,3;BCS1388054;6;12
009764;29.03.2022;08:20:58;Normalcharge  ;04.12.2018;FEY;;LION;49;14500;7200;192;6;84;88;8400;3000;4023;4022;1;13021;24.94;25.54;25,7;BCS1388054;4;16
009764;29.03.2022;08:21:36;Stop          ;04.12.2018;FEY;;LION;49;14500;7200;128;6;84;88;8400;3000;4079;4047;1;12686;24.94;27.04;26,0;BCS1388054;4;16
009764;29.03.2022;08:22:11;Normalcharge  ;04.12.2018;FEY;;LION;49;14500;7200;128;6;84;88;8400;3000;4025;4025;1;13019;24.94;26.64;26,3;BCS1388054;4;16
009764;29.03.2022;08:22:29;Stop          ;04.12.2018;FEY;;LION;49;14500;7200;128;6;84;88;8400;3000;4024;4026;1;12880;24.94;26.94;26,4;BCS1388054;4;16
009764;17.05.2022;08:54:06;Normalcharge  ;04.12.2018;FEY;;LION;49;14500;7200;192;6;84;88;8400;3000;4005;4005;1;12992;28.34;29.34;30,8;BCS1388054;1;10
009764;17.05.2022;11:50:11;Stop          ;04.12.2018;FEY;;LION;49;14500;7200;224;6;96;100;8400;;4153;4152;1;12990;30.74;31.04;34,5;BCS1388054;1;10