Folder: Battery_sort_V2/reader/Batterieverzeichnis (part 3)

File: 009547.txt
Serialnumber ; Date ; Time ; Action ; Date of Manufacture ; Manufacturer ; Battery Name ; Device-Chemistry ; Specification-Info ; Design-Capacity [mAh] ; Design-Voltage [mV] ; Battery Status ; Cycle Count ; SOC [%] ; Relativ SOC[%] ; Desired Voltage [mV]; Desired Current [mA]; Cell Voltage 1 [mV] ; Cell Voltage 2 [mV] ; Max_Error [%] ; Busvoltage[mV] ; Battery Temperature [°C] ; Charger Temperature [°C] ; Batterysystem ; Case ; PLace
009547;30.11.2020;09:42:55;Stop          ;03.12.2018;FEY;;LION;49;14500;7200;224;3;98;100;8400;;4154;4152;1;13029;27.54;28.14;31,7;BCS1388054;7;16
009547;07.02.2021;08:46:42;Normalcharge  ;03.12.2018;FEY;;LION;49;14500;7200;192;3;97;98;8400;;4122;4120;1;13000;23.64;25.04;29,2;BCS1388054;1;10
009547;07.02.2021;11:52:07;Stop          ;03.12.2018;FEY;;LION;49;14500;7200;192;3;97;98;8400;;4122;4120;1;13000;25.64;26.04;29,7;BCS1388054;1;10
009547;03.03.2021;08:17:21;Normalcharge  ;03.12.2018;FEY;;LION;49;14500;7200;192;3;93;94;8400;3000;4079;4078;1;13012;23.14;23.14;23,5;BCS1388054;3;5
009547;04.03.2021;07:53:39;Stop           ;03.12.2018;FEY;;LION;49;14500;7200;224;3;99;100;8400;;4147;4145;1;13006;26.34;27.14;31,5;BCS1388054;3;5
009547;04.04.2021;11:49:55;Normalcharge  ;03.12.2018;FEY;;LION;49;14500;7200;192;4;53;55;8400;3000;3691;3689;1;13022;24.94;25.94;27,5;BCS1388054;7;12
009547;04.04.2021;11:51:17;Stop          ;03.12.2018;FEY;;LION;49;14500;7200;128;4;54;55;8400;3000;3779;3730;1;12739;25.04;27.84;28,4;BCS1388054;7;12
009547;05.04.2021;09:37:37;Charge to 60% ;03.12.2018;FEY;;LION;49;14500;7200;192;4;54;55;8400;3000;3694;3692;1;13003;24.94;26.24;26,0;BCS1388054;1;14
009547;05.04.2021;10:01:53;Stop          ;03.12.2018;FEY;;LION;49;14500;7200;128;4;58;60;8400;3000;3767;3766;1;12999;27.04;34.04;31,2;BCS1388054;1;14
009547;22.08.2021;11:07:56;Normalcharge  ;03.12.2018;FEY;;LION;49;14500;7200;192;4;45;45;8400;3000;3623;3622;1;12993;22.44;29.84;32,0;BCS1388054;2;14
009547;22.08.2021;11:08:29;Stop          ;03.12.2018;FEY;;LION;49;14500;7200;128;4;45;45;8400;3000;3693;3652;1;12574;22.54;31.14;32,4;BCS1388054;2;14

File: 009569.txt
Serialnumber ; Date ; Time ; Action ; Date of Manufacture ; Manufacturer ; Battery Name ; Device-Chemistry ; Specification-Info ; Design-Capacity [mAh] ; Design-Voltage [mV] ; Battery Status ; Cycle Count ; SOC [%] ; Relativ SOC[%] ; Desired Voltage [mV]; Desired Current [mA]; Cell Voltage 1 [mV] ; Cell Voltage 2 [mV] ; Max_Error [%] ; Busvoltage[mV] ; Battery Temperature [°C] ; Charger Temperature [°C] ; Batterysystem ; Case ; PLace
009569;07.12.2020;04:14:36;Cycle         ;04.12.2018;FEY;;LION;49;14500;7200;192;1;96;97;8400;;4132;4134;1;13010;25.64;28.64;30,3;BCS1388054;6;15
009569;08.12.2020;16:20:13;Stop          ;04.12.2018;FEY;;LION;49;14500;7200;192;1;96;97;8400;;4130;4131;1;13010;27.74;30.24;31,9;BCS1388054;6;15
009569;12.01.2021;04:17:40;Charge to 90% ;04.12.2018;FEY;;LION;49;14500;7200;192;1;95;96;8400;;4118;4119;1;13003;23.14;23.94;23,6;BCS1388054;6;8
009569;12.01.2021;05:00:55;Stop          ;04.12.2018;FEY;;LION;49;14500;7200;192;1;89;90;8400;3000;4061;4062;1;12997;26.84;29.94;31,2;BCS1388054;6;8
009569;12.01.2021;05:21:57;Cycle         ;04.12.2018;FEY;;LION;49;14500;7200;192;1;89;90;8400;3000;4063;4064;1;12998;27.04;28.74;30,4;BCS1388054;6;8
009569;13.01.2021;08:31:18;Stop          ;04.12.2018;FEY;;LION;49;14500;7200;224;2;97;100;8400;;4156;4159;1;13001;27.14;28.64;31,1;BCS1388054;6;8
009569;22.02.2021;17:31:46;Normalcharge  ;04.12.2018;FEY;;LION;49;14500;7200;192;3;59;61;8400;3000;3757;3763;1;12993;26.54;27.44;31,6;BCS1388054;1;14
009569;22.02.2021;23:06:28;Stop          ;04.12.2018;FEY;;LION;49;14500;7200;224;3;97;100;8400;;4156;4157;1;12995;26.74;28.64;30,6;BCS1388054;1;14
009569;04.04.2021;11:50:33;Normalcharge  ;04.12.2018;FEY;;LION;49;14500;7200;192;3;53;55;8400;3000;3697;3698;1;13017;25.04;25.94;27,9;BCS1388054;2;6
009569;04.04.2021;11:51:48;Stop          ;04.12.2018;FEY;;LION;49;14500;7200;128;3;53;55;8400;3000;3784;3738;1;12611;25.04;28.04;28,6;BCS1388054;2;6
009569;05.04.2021;09:37:46;Charge to 60% ;04.12.2018;FEY;;LION;49;14500;7200;192;3;53;55;8400;3000;3700;3700;1;13004;25.14;25.44;26,1;BCS1388054;2;11
009569;05.04.2021;10:03:48;Stop          ;04.12.2018;FEY;;LION;49;14500;7200;192;3;57;60;8400;3000;3761;3765;1;12999;27.04;27.94;31,4;BCS1388054;2;11
009569;22.08.2021;11:07:55;Normalcharge  ;04.12.2018;FEY;;LION;49;14500;7200;192;3;45;46;8400;3000;3624;3624;1;12993;22.44;30.24;32,0;BCS1388054;2;8
009569;22.08.2021;11:08:28;Stop          ;04.12.2018;FEY;;LION;49;14500;7200;128;3;45;46;8400;3000;3672;3646;1;12607;22.54;31.34;32,4;BCS1388054;2;8

File: 009570.txt
Serialnumber ; Date ; Time ; Action ; Date of Manufacture ; Manufacturer ; Battery Name ; Device-Chemistry ; Specification-Info ; Design-Capacity [mAh] ; Design-Voltage [mV] ; Battery Status ; Cycle Count ; SOC [%] ; Relativ SOC[%] ; Desired Voltage [mV]; Desired Current [mA]; Cell Voltage 1 [mV] ; Cell Voltage 2 [mV] ; Max_Error [%] ; Busvoltage[mV] ; Battery Temperature [°C] ; Charger Temperature [°C] ; Batterysystem ; Case ; PLace
009570;07.12.2020;04:14:32;Cycle         ;04.12.2018;FEY;;LION;49;14500;7200;16576;3;98;98;;;4148;4147;1;12996;25.74;28.54;30,3;BCS1388054;5;7
009570;08.12.2020;16:20:01;Stop          ;04.12.2018;FEY;;LION;49;14500;7200;16576;3;98;98;;;4145;4144;1;12994;27.94;30.24;31,7;BCS1388054;5;7
009570;12.01.2021;04:17:36;Charge to 90% ;04.12.2018;FEY;;LION;49;14500;7200;16576;3;97;97;;;4131;4131;1;13018;23.04;23.24;23,6;BCS1388054;5;17
009570;12.01.2021;05:15:37;Stop          ;04.12.2018;FEY;;LION;49;14500;7200;192;3;90;90;8400;3000;4063;4062;1;13012;27.04;28.34;31,6;BCS1388054;5;17
009570;12.01.2021;05:21:53;Cycle         ;04.12.2018;FEY;;LION;49;14500;7200;192;3;90;90;8400;3000;4064;4063;1;13013;27.04;27.94;30,6;BCS1388054;5;17
009570;13.01.2021;08:31:10;Stop          ;04.12.2018;FEY;;LION;49;14500;7200;224;4;97;100;8400;;4155;4154;1;13013;26.94;27.84;31,1;BCS1388054;5;17
009570;21.02.2021;13:43:32;Normalcharge  ;04.12.2018;FEY;;LION;49;14500;7200;224;4;96;99;8400;;4132;4131;1;13003;23.24;24.84;27,5;BCS1388054;2;14
009570;21.02.2021;19:27:00;Stop          ;04.12.2018;FEY;;LION;49;14500;7200;224;4;96;99;8400;;4132;4131;1;13002;27.04;28.24;31,1;BCS1388054;2;14
009570;06.04.2021;08:39:16;Normalcharge  ;04.12.2018;FEY;;LION;49;14500;7200;192;4;95;98;8400;;4116;4116;1;12997;21.34;25.14;28,1;BCS1388054;6;7
009570;06.04.2021;08:40:03;Stop          ;04.12.2018;FEY;;LION;49;14500;7200;192;4;95;98;8400;;4116;4116;1;12976;21.34;25.34;28,5;BCS1388054;6;7
009570;08.04.2021;07:58:44;Normalcharge  ;04.12.2018;FEY;;LION;49;14500;7200;192;4;95;98;8400;;4116;4116;1;13001;25.14;23.64;26,4;BCS1388054;6;7
009570;08.04.2021;07:59:23;Stop          ;04.12.2018;FEY;;LION;49;14500;7200;192;4;95;98;8400;;4116;4116;1;13001;25.14;25.24;26,7;BCS1388054;6;7
009570;08.04.2021;10:36:16;Normalcharge  ;04.12.2018;FEY;;LION;49;14500;7200;192;4;95;98;8400;;4116;4116;1;12999;25.44;25.84;28,6;BCS1388054;6;7
009570;08.04.2021;10:37:11;Stop          ;04.12.2018;FEY;;LION;49;14500;7200;192;4;95;98;8400;;4116;4116;1;12979;25.44;26.24;29,2;BCS1388054;6;7
009570;18.04.2021;08:34:33;Normalcharge  ;04.12.2018;FEY;;LION;49;14500;7200;192;4;94;97;8400;;4113;4112;1;12998;26.04;26.64;28,2;BCS1388054;6;7
009570;18.04.2021;08:34:41;Stop          ;04.12.2018;FEY;;LION;49;14500;7200;192;4;94;97;8400;;4113;4112;1;12996;26.04;26.74;28,2;BCS1388054;6;7
009570;04.08.2021;07:24:35;Normalcharge  ;04.12.2018;FEY;;LION;49;14500;7200;192;4;93;96;8400;;4085;4085;1;12994;30.14;30.14;31,5;BCS1388054;6;7
009570;04.08.2021;07:25:17;Stop          ;04.12.2018;FEY;;LION;49;14500;7200;192;4;93;96;8400;;4086;4085;1;12977;30.14;30.54;31,6;BCS1388054;6;7
009570;22.08.2021;11:08:00;Normalcharge  ;04.12.2018;FEY;;LION;49;14500;7200;192;4;91;94;8400;3000;4081;4080;1;13008;22.34;29.44;32,1;BCS1388054;3;15
009570;22.08.2021;11:08:34;Stop           ;04.12.2018;FEY;;LION;49;14500;7200;128;4;91;94;8400;3000;4154;4121;1;12706;22.44;30.64;32,4;BCS1388054;3;15
009570;14.10.2021;12:39:57;Normalcharge  ;04.12.2018;FEY;;LION;49;14500;7200;192;4;69;71;8400;3000;3861;3860;1;12986;25.04;26.74;27,9;BCS1388054;2;7
009570;14.10.2021;12:41:24;Stop          ;04.12.2018;FEY;;LION;49;14500;7200;128;4;69;72;8400;3000;3954;3906;1;12560;25.14;30.24;28,2;BCS1388054;2;7
009570;07.02.2022;08:51:51;Normalcharge  ;04.12.2018;FEY;;LION;49;14500;7200;192;4;69;72;8400;3000;3836;3835;1;13004;22.34;22.34;25,6;BCS1388054;1;10
009570;07.02.2022;13:16:30;Stop          ;04.12.2018;FEY;;LION;49;14500;7200;224;4;97;100;8400;;4152;4149;1;13000;25.44;26.04;31,2;BCS1388054;1;10
009570;14.03.2022;12:14:26;Normalcharge  ;04.12.2018;FEY;;LION;49;14500;7200;224;4;96;99;8400;;4129;4127;1;13006;23.94;25.04;27,5;BCS1388054;5;3
009570;14.03.2022;12:18:30;Stop          ;04.12.2018;FEY;;LION;49;14500;7200;224;4;96;99;8400;;4129;4127;1;13003;24.04;26.74;29,5;BCS1388054;5;3

File: 009573.txt
Serialnumber ; Date ; Time ; Action ; Date of Manufacture ; Manufacturer ; Battery Name ; Device-Chemistry ; Specification-Info ; Design-Capacity [mAh] ; Design-Voltage [mV] ; Battery Status ; Cycle Count ; SOC [%] ; Relativ SOC[%] ; Desired Voltage [mV]; Desired Current [mA]; Cell Voltage 1 [mV] ; Cell Voltage 2 [mV] ; Max_Error [%] ; Busvoltage[mV] ; Battery Temperature [°C] ; Charger Temperature [°C] ; Batterysystem ; Case ; PLace
009573;07.12.2020;04:14:28;Cycle         ;04.12.2018;FEY;;LION;49;14500;7200;192;4;98;98;8400;;4135;4134;1;13002;25.64;27.54;30,3;BCS1388054;4;15
009573;08.12.2020;16:19:56;Stop          ;04.12.2018;FEY;;LION;49;14500;7200;192;4;98;98;8400;;4133;4132;1;13000;27.74;29.04;31,9;BCS1388054;4;15
009573;12.01.2021;04:17:33;Charge to 90% ;04.12.2018;FEY;;LION;49;14500;7200;192;4;97;97;8400;;4120;4119;1;13008;23.14;23.24;23,6;BCS1388054;4;17
009573;12.01.2021;04:57:16;Stop          ;04.12.2018;FEY;;LION;49;14500;7200;192;4;91;90;8400;3000;4049;4050;1;13003;27.04;29.04;31,6;BCS1388054;4;17
009573;12.01.2021;05:21:49;Cycle         ;04.12.2018;FEY;;LION;49;14500;7200;192;4;91;90;8400;3000;4054;4055;1;13003;27.04;27.74;30,4;BCS1388054;4;17
009573;13.01.2021;08:19:19;Stop          ;04.12.2018;FEY;;LION;49;14500;7200;224;5;97;99;8400;;4154;4155;1;13005;27.04;27.74;30,7;BCS1388054;4;17
009573;21.02.2021;13:43:49;Normalcharge  ;04.12.2018;FEY;;LION;49;14500;7200;192;6;59;60;8400;3000;3736;3737;1;13007;22.94;22.34;27,7;BCS1388054;3;11
009573;21.02.2021;20:44:52;Stop           ;04.12.2018;FEY;;LION;49;14500;7200;224;6;98;100;8400;;4151;4151;1;12999;26.64;26.24;31,2;BCS1388054;3;11
009573;06.04.2021;08:39:16;Normalcharge  ;04.12.2018;FEY;;LION;49;14500;7200;224;6;96;99;8400;;4127;4126;1;13001;21.34;24.84;28,1;BCS1388054;6;4
009573;06.04.2021;08:40:03;Stop          ;04.12.2018;FEY;;LION;49;14500;7200;224;6;96;99;8400;;4126;4126;1;12980;21.44;25.04;28,5;BCS1388054;6;4
009573;08.04.2021;07:58:44;Normalcharge  ;04.12.2018;FEY;;LION;49;14500;7200;224;6;96;99;8400;;4126;4126;1;13012;25.24;22.44;26,4;BCS1388054;6;4
009573;08.04.2021;07:59:23;Stop          ;04.12.2018;FEY;;LION;49;14500;7200;224;6;96;99;8400;;4126;4126;1;13011;25.24;24.94;26,7;BCS1388054;6;4
009573;08.04.2021;10:36:16;Normalcharge  ;04.12.2018;FEY;;LION;49;14500;7200;224;6;96;99;8400;;4126;4126;1;13010;25.44;25.54;28,6;BCS1388054;6;4
009573;08.04.2021;10:37:11;Stop          ;04.12.2018;FEY;;LION;49;14500;7200;224;6;96;99;8400;;4126;4126;1;12988;25.44;25.94;29,2;BCS1388054;6;4
009573;18.04.2021;08:34:33;Normalcharge  ;04.12.2018;FEY;;LION;49;14500;7200;224;6;96;99;8400;;4123;4122;1;13002;26.14;26.44;28,2;BCS1388054;6;4
009573;18.04.2021;08:34:41;Stop          ;04.12.2018;FEY;;LION;49;14500;7200;224;6;96;99;8400;;4123;4122;1;13001;26.14;26.54;28,2;BCS1388054;6;4
009573;04.08.2021;07:24:35;Normalcharge  ;04.12.2018;FEY;;LION;49;14500;7200;192;6;94;96;8400;;4091;4091;1;13004;30.14;29.84;31,5;BCS1388054;6;4
009573;04.08.2021;07:25:17;Stop          ;04.12.2018;FEY;;LION;49;14500;7200;192;6;94;96;8400;;4091;4091;1;12988;30.14;30.34;31,6;BCS1388054;6;4
009573;22.08.2021;11:07:59;Normalcharge  ;04.12.2018;FEY;;LION;49;14500;7200;192;6;83;85;8400;3000;3976;3977;1;12994;22.94;28.44;32,1;BCS1388054;3;11
009573;22.08.2021;11:08:33;Stop           ;04.12.2018;FEY;;LION;49;14500;7200;128;6;83;85;8400;3000;4012;3995;1;12708;23.04;29.44;32,4;BCS1388054;3;11

File: 009576.txt
Serialnumber ; Date ; Time ; Action ; Date of Manufacture ; Manufacturer ; Battery Name ; Device-Chemistry ; Specification-Info ; Design-Capacity [mAh] ; Design-Voltage [mV] ; Battery Status ; Cycle Count ; SOC [%] ; Relativ SOC[%] ; Desired Voltage [mV]; Desired Current [mA]; Cell Voltage 1 [mV] ; Cell Voltage 2 [mV] ; Max_Error [%] ; Busvoltage[mV] ; Battery Temperature [°C] ; Charger Temperature [°C] ; Batterysystem ; Case ; PLace
009576;07.12.2020;04:14:40;Cycle         ;04.12.2018;FEY;;LION;49;14500;7200;192;3;95;96;8400;;4112;4111;1;13026;25.64;28.34;30,3;BCS1388054;7;8
009576;08.12.2020;16:20:20;Stop          ;04.12.2018;FEY;;LION;49;14500;7200;192;3;95;96;8400;;4110;4110;1;13029;27.74;29.74;31,9;BCS1388054;7;8
009576;12.01.2021;04:17:36;Charge to 90% ;04.12.2018;FEY;;LION;49;14500;7200;192;3;95;96;8400;;4099;4099;1;13020;23.04;23.74;23,6;BCS1388054;5;18
009576;12.01.2021;05:15:37;Stop          ;04.12.2018;FEY;;LION;49;14500;7200;192;4;90;90;8400;3000;4044;4044;1;13014;27.24;28.54;31,6;BCS1388054;5;18
009576;12.01.2021;05:21:53;Cycle         ;04.12.2018;FEY;;LION;49;14500;7200;192;4;90;90;8400;3000;4044;4044;1;13014;27.04;28.24;30,6;BCS1388054;5;18
009576;13.01.2021;08:31:10;Stop          ;04.12.2018;FEY;;LION;49;14500;7200;224;5;97;100;8400;;4156;4158;1;13014;26.84;28.24;31,1;BCS1388054;5;18
009576;21.02.2021;13:43:19;Normalcharge  ;04.12.2018;FEY;;LION;49;14500;7200;192;5;71;74;8400;3000;3881;3883;1;13005;23.74;25.34;27,5;BCS1388054;1;7
009576;22.02.2021;17:08:49;Stop          ;04.12.2018;FEY;;LION;49;14500;7200;224;5;97;100;8400;;4147;4148;1;13006;26.34;27.34;30,0;BCS1388054;1;7
009576;06.04.2021;08:39:10;Normalcharge  ;04.12.2018;FEY;;LION;49;14500;7200;224;5;96;99;8400;;4127;4128;1;12999;21.94;25.94;28,1;BCS1388054;5;7
009576;06.04.2021;08:39:58;Stop          ;04.12.2018;FEY;;LION;49;14500;7200;224;5;96;99;8400;;4127;4128;1;13000;21.94;26.24;28,4;BCS1388054;5;7
009576;08.04.2021;07:58:30;Normalcharge  ;04.12.2018;FEY;;LION;49;14500;7200;224;5;96;99;8400;;4127;4128;1;12999;25.24;25.94;26,4;BCS1388054;5;7
009576;08.04.2021;07:59:28;Stop          ;04.12.2018;FEY;;LION;49;14500;7200;224;5;96;99;8400;;4127;4127;1;13000;25.24;26.44;26,7;BCS1388054;5;7
009576;08.04.2021;10:36:12;Normalcharge  ;04.12.2018;FEY;;LION;49;14500;7200;224;5;95;99;8400;;4126;4127;1;12999;25.44;26.84;28,6;BCS1388054;5;7
009576;08.04.2021;10:37:06;Stop          ;04.12.2018;FEY;;LION;49;14500;7200;224;5;95;99;8400;;4126;4127;1;12999;25.44;27.24;29,0;BCS1388054;5;7
009576;18.04.2021;08:34:16;Normalcharge  ;04.12.2018;FEY;;LION;49;14500;7200;224;5;95;99;8400;;4123;4124;1;12997;26.14;27.64;28,1;BCS1388054;5;7
009576;18.04.2021;08:34:27;Stop          ;04.12.2018;FEY;;LION;49;14500;7200;224;5;95;99;8400;;4123;4124;1;12999;26.14;27.74;28,2;BCS1388054;5;7
009576;04.08.2021;07:24:41;Normalcharge  ;04.12.2018;FEY;;LION;49;14500;7200;192;5;93;96;8400;;4091;4092;1;12995;30.24;31.44;31,5;BCS1388054;5;7
009576;04.08.2021;07:25:23;Stop          ;04.12.2018;FEY;;LION;49;14500;7200;192;5;93;96;8400;;4091;4092;1;12994;30.24;31.84;31,6;BCS1388054;5;7
009576;22.08.2021;11:37:13;Normalcharge  ;04.12.2018;FEY;;LION;49;14500;7200;192;5;93;96;8400;;4086;4087;1;13030;22.44;28.84;31,9;BCS1388054;7;16
009576;22.08.2021;11:37:48;Stop          ;04.12.2018;FEY;;LION;49;14500;7200;192;5;93;96;8400;;4086;4087;1;13000;22.64;28.94;31,9;BCS1388054;7;16
009576;14.10.2021;12:40:22;Normalcharge  ;04.12.2018;FEY;;LION;49;14500;7200;192;6;49;51;8400;3000;3652;3654;1;13024;23.64;26.04;28,1;BCS1388054;7;13
009576;14.10.2021;12:42:05;Stop          ;04.12.2018;FEY;;LION;49;14500;7200;128;6;49;51;8400;3000;3743;3698;1;12727;23.84;30.14;28,5;BCS1388054;7;13
009576;01.11.2021;09:51:48;Normalcharge  ;04.12.2018;FEY;;LION;49;14500;7200;192;6;49;51;8400;3000;3652;3653;1;13025;25.84;25.64;26,3;BCS1388054;7;13
009576;01.11.2021;09:53:51;Stop          ;04.12.2018;FEY;;LION;49;14500;7200;128;6;50;51;8400;3000;3741;3695;1;12672;25.94;30.24;27,4;BCS1388054;7;13
009576;01.11.2021;10:02:29;Normalcharge  ;04.12.2018;FEY;;LION;49;14500;7200;192;6;50;51;8400;3000;3655;3656;1;13021;26.04;27.74;29,5;BCS1388054;7;13
009576;01.11.2021;10:03:04;Stop          ;04.12.2018;FEY;;LION;49;14500;7200;128;6;50;51;8400;3000;3715;3681;1;12699;26.14;29.24;29,3;BCS1388054;7;13
009576;01.11.2021;10:27:23;Normalcharge  ;04.12.2018;FEY;;LION;49;14500;7200;192;6;50;51;8400;3000;3655;3657;1;13022;26.34;26.54;27,7;BCS1388054;7;13
009576;01.11.2021;10:29:22;Stop          ;04.12.2018;FEY;;LION;49;14500;7200;128;6;50;52;8400;3000;3745;3698;1;12673;26.44;31.04;28,6;BCS1388054;7;13

File: 009581.txt
Serialnumber ; Date ; Time ; Action ; Date of Manufacture ; Manufacturer ; Battery Name ; Device-Chemistry ; Specification-Info ; Design-Capacity [mAh] ; Design-Voltage [mV] ; Battery Status ; Cycle Count ; SOC [%] ; Relativ SOC[%] ; Desired Voltage [mV]; Desired Current [mA]; Cell Voltage 1 [mV] ; Cell Voltage 2 [mV] ; Max_Error [%] ; Busvoltage[mV] ; Battery Temperature [°C] ; Charger Temperature [°C] ; Batterysystem ; Case ; PLace
009581;07.02.2021;08:46:49;Normalcharge  ;04.12.2018;FEY;;LION;49;14500;7200;192;2;91;96;8400;;4107;4108;1;12998;23.74;24.84;29,2;BCS1388054;2;11
009581;07.02.2021;11:52:12;Stop          ;04.12.2018;FEY;;LION;49;14500;7200;192;2;91;96;8400;;4107;4108;1;12999;25.84;26.04;29,7;BCS1388054;2;11
009581;03.03.2021;08:17:17;Normalcharge  ;04.12.2018;FEY;;LION;49;14500;7200;192;2;91;96;8400;;4100;4101;1;13012;23.24;23.24;23,5;BCS1388054;2;1
009581;04.03.2021;07:53:45;Stop          ;04.12.2018;FEY;;LION;49;14500;7200;192;2;91;96;8400;;4099;4100;1;13003;26.44;28.14;31,6;BCS1388054;2;1
009581;04.04.2021;11:50:28;Normalcharge  ;04.12.2018;FEY;;LION;49;14500;7200;192;3;46;49;8400;3000;3651;3652;1;12996;25.14;26.64;27,9;BCS1388054;3;8
009581;04.04.2021;11:51:43;Stop           ;04.12.2018;FEY;;LION;49;14500;7200;128;3;46;49;8400;3000;3737;3691;1;12787;25.24;29.24;28,6;BCS1388054;3;8
009581;05.04.2021;09:38:17;Charge to 60% ;04.12.2018;FEY;;LION;49;14500;7200;192;3;46;49;8400;3000;3652;3653;1;13001;25.14;25.74;26,4;BCS1388054;5;14
009581;05.04.2021;10:34:50;Charge to 60% ;04.12.2018;FEY;;LION;49;14500;7200;192;3;57;60;8400;3000;3762;3765;1;12914;28.84;30.64;32,4;BCS1388054;5;14
009581;05.04.2021;13:16:09;Stop          ;04.12.2018;FEY;;LION;49;14500;7200;192;3;57;60;8400;3000;3755;3758;1;12997;27.94;29.54;32,2;BCS1388054;5;14
009581;22.08.2021;11:37:30;Normalcharge  ;04.12.2018;FEY;;LION;49;14500;7200;192;3;52;55;8400;3000;3701;3702;1;12990;21.54;28.74;31,9;BCS1388054;3;8
009581;22.08.2021;11:38:19;Stop           ;04.12.2018;FEY;;LION;49;14500;7200;128;3;52;55;8400;3000;3784;3740;1;12558;21.64;30.64;32,1;BCS1388054;3;8
009581;25.08.2021;08:15:15;Ladung auf 60% ;04.12.2018;FEY;;LION;49;14500;7200;192;3;52;55;8400;3000;3703;3704;1;12988;30.54;32.44;33,4;BCS1388054;3;8
009581;25.08.2021;08:40:44;Stop           ;04.12.2018;FEY;;LION;49;14500;7200;192;3;57;60;8400;3000;3778;3780;1;12987;32.54;35.94;36,1;BCS1388054;3;8
009581;01.11.2021;09:52:05;Normalcharge  ;04.12.2018;FEY;;LION;49;14500;7200;192;3;55;58;8400;3000;3729;3730;1;13017;25.44;25.04;26,3;BCS1388054;4;4
009581;01.11.2021;09:53:34;Stop          ;04.12.2018;FEY;;LION;49;14500;7200;128;3;55;58;8400;3000;3821;3774;1;12628;25.44;28.84;27,1;BCS1388054;4;4
009581;01.11.2021;10:02:14;Normalcharge  ;04.12.2018;FEY;;LION;49;14500;7200;192;3;55;58;8400;3000;3733;3734;1;13013;25.64;27.34;29,5;BCS1388054;4;4
009581;01.11.2021;10:03:16;Stop          ;04.12.2018;FEY;;LION;49;14500;7200;128;3;55;58;8400;3000;3822;3776;1;12606;25.64;29.64;29,3;BCS1388054;4;4
009581;01.11.2021;10:18:21;Normalcharge  ;04.12.2018;FEY;;LION;49;14500;7200;192;3;55;58;8400;3000;3735;3737;1;13012;25.84;26.74;28,4;BCS1388054;4;4
009581;01.11.2021;10:19:03;Stop          ;04.12.2018;FEY;;LION;49;14500;7200;128;3;55;58;8400;3000;3817;3773;1;12592;25.84;28.54;28,2;BCS1388054;4;4
009581;01.11.2021;10:28:22;Normalcharge  ;04.12.2018;FEY;;LION;49;14500;7200;192;3;55;58;8400;3000;3736;3738;1;13012;25.94;26.94;27,9;BCS1388054;4;4
009581;01.11.2021;10:29:09;Stop          ;04.12.2018;FEY;;LION;49;14500;7200;128;3;55;58;8400;3000;3824;3777;1;12588;25.94;29.04;28,5;BCS1388054;4;4
009581;01.11.2021;10:32:29;Charge to 60% ;04.12.2018;FEY;;LION;49;14500;7200;192;3;55;58;8400;3000;3738;3740;1;13012;26.04;27.64;29,7;BCS1388054;4;4
009581;01.11.2021;15:19:33;Stop          ;04.12.2018;FEY;;LION;49;14500;7200;192;3;57;60;8400;3000;3761;3763;1;13011;28.54;29.34;32,7;BCS1388054;4;4
009581;07.02.2022;08:51:04;Normalcharge  ;04.12.2018;FEY;;LION;49;14500;7200;192;3;54;57;8400;3000;3719;3720;1;13012;22.34;22.74;25,1;BCS1388054;3;15
009581;07.02.2022;14:32:56;Stop           ;04.12.2018;FEY;;LION;49;14500;7200;224;3;96;100;8400;;4156;4155;1;13009;25.44;26.64;30,8;BCS1388054;3;15
009581;13.03.2022;12:10:09;Normalcharge  ;04.12.2018;FEY;;LION;49;14500;7200;192;3;65;70;8400;3000;3847;3848;1;13023;24.34;24.14;25,6;BCS1388054;3;3
009581;13.03.2022;12:10:50;Stop           ;04.12.2018;FEY;;LION;49;14500;7200;128;3;65;70;8400;3000;3876;3862;1;12769;24.34;25.74;25,7;BCS1388054;3;3
009581;14.03.2022;10:33:26;Normalcharge  ;04.12.2018;FEY;;LION;49;14500;7200;192;3;65;70;8400;3000;3847;3847;1;13028;24.24;24.44;25,0;BCS1388054;7;2
009581;14.03.2022;10:37:46;Normalcharge  ;04.12.2018;FEY;;LION;49;14500;7200;128;3;66;71;8400;3000;3951;3902;1;12758;24.44;30.84;27,9;BCS1388054;7;2
009581;14.03.2022;10:37:57;Stop          ;04.12.2018;FEY;;LION;49;14500;7200;128;3;66;71;8400;3000;3951;3903;1;12758;24.44;30.94;27,9;BCS1388054;7;2

File: 009583.txt
Serialnumber ; Date ; Time ; Action ; Date of Manufacture ; Manufacturer ; Battery Name ; Device-Chemistry ; Specification-Info ; Design-Capacity [mAh] ; Design-Voltage [mV] ; Battery Status ; Cycle Count ; SOC [%] ; Relativ SOC[%] ; Desired Voltage [mV]; Desired Current [mA]; Cell Voltage 1 [mV] ; Cell Voltage 2 [mV] ; Max_Error [%] ; Busvoltage[mV] ; Battery Temperature [°C] ; Charger Temperature [°C] ; Batterysystem ; Case ; PLace
009583;02.12.2020;11:43:08;Cycle         ;04.12.2018;FEY;;LION;49;14500;7200;192;3;79;80;8400;3000;3929;3929;1;12990;26.14;26.64;28,4;BCS1388054;1;5
009583;03.12.2020;15:31:47;Stop          ;04.12.2018;FEY;;LION;49;14500;7200;224;4;96;100;8400;;4155;4156;1;12991;26.74;27.04;28,8;BCS1388054;1;5
009583;03.12.2020;17:28:02;Normalcharge  ;04.12.2018;FEY;;LION;49;14500;7200;224;4;96;100;8400;;4153;4155;1;12992;26.64;27.04;28,9;BCS1388054;1;5
009583;06.04.2021;08:38:50;Normalcharge  ;04.12.2018;FEY;;LION;49;14500;7200;192;4;93;97;8400;;4101;4102;1;13003;20.84;24.84;28,1;BCS1388054;3;9
009583;06.04.2021;08:39:42;Stop           ;04.12.2018;FEY;;LION;49;14500;7200;192;4;93;97;8400;;4101;4102;1;13004;20.84;25.14;28,2;BCS1388054;3;9
009583;08.04.2021;07:58:01;Normalcharge  ;04.12.2018;FEY;;LION;49;14500;7200;192;4;93;97;8400;;4102;4102;1;13010;25.44;25.24;26,4;BCS1388054;3;9
009583;08.04.2021;07:59:40;Stop           ;04.12.2018;FEY;;LION;49;14500;7200;192;4;93;97;8400;;4102;4102;1;13007;25.44;25.94;26,8;BCS1388054;3;9
009583;08.04.2021;10:35:05;Normalcharge  ;04.12.2018;FEY;;LION;49;14500;7200;192;4;93;97;8400;;4102;4102;1;13005;25.64;25.44;28,1;BCS1388054;3;9
009583;08.04.2021;10:36:56;Stop           ;04.12.2018;FEY;;LION;49;14500;7200;192;4;93;97;8400;;4101;4102;1;13002;25.64;26.34;29,0;BCS1388054;3;9
009583;18.04.2021;08:33:50;Normalcharge  ;04.12.2018;FEY;;LION;49;14500;7200;192;4;93;97;8400;;4099;4099;1;13007;26.34;26.74;27,8;BCS1388054;3;9
009583;18.04.2021;08:33:58;Stop           ;04.12.2018;FEY;;LION;49;14500;7200;192;4;93;97;8400;;4099;4099;1;13008;26.34;26.74;27,9;BCS1388054;3;9
009583;04.08.2021;07:24:50;Normalcharge  ;04.12.2018;FEY;;LION;49;14500;7200;192;4;93;97;8400;;4071;4072;1;13001;30.54;30.84;31,6;BCS1388054;3;9
009583;04.08.2021;07:25:37;Stop           ;04.12.2018;FEY;;LION;49;14500;7200;192;4;93;97;8400;;4071;4072;1;12999;30.54;31.14;31,7;BCS1388054;3;9
009583;22.08.2021;11:08:08;Normalcharge  ;04.12.2018;FEY;;LION;49;14500;7200;2768;5;;;8400;3000;3108;3113;1;13008;22.64;29.04;32,1;BCS1388054;5;9
009583;22.08.2021;11:08:41;Stop          ;04.12.2018;FEY;;LION;49;14500;7200;2768;5;;;8400;3000;3108;3113;1;12868;22.74;30.14;32,5;BCS1388054;5;9