Folder: Battery_sort_V2/reader/Batterieverzeichnis_new

Note: reader/Batterieverzeichnis_new/009535.txt
009535;29.11.2020;04:42:29;Cycle         ;04.12.2018;FEY;;LION;49;14500;7200;16576;2;99;99;;;4162;4163;1;13008;23.34;18.74;27,5;BCS1388054;6;11
009535;12.01.2021;04:17:22;Charge to 90% ;04.12.2018;FEY;;LION;49;14500;7200;16576;2;97;97;;;4137;4137;1;13022;23.24;23.34;23,5;BCS1388054;2;6
009535;12.01.2021;04:54:21;Stop          ;04.12.2018;FEY;;LION;49;14500;7200;192;2;91;90;8400;3000;4058;4058;1;13013;27.44;28.94;31,9;BCS1388054;2;6
009535;12.01.2021;05:21:40;Cycle         ;04.12.2018;FEY;;LION;49;14500;7200;192;2;91;90;8400;3000;4067;4067;1;13014;27.44;27.04;30,6;BCS1388054;2;6
009535;13.01.2021;08:20:19;Stop          ;04.12.2018;FEY;;LION;49;14500;7200;224;3;98;100;8400;;4156;4154;1;13015;26.84;27.14;30,8;BCS1388054;2;6
009535;22.02.2021;17:31:46;Normalcharge  ;04.12.2018;FEY;;LION;49;14500;7200;192;4;63;64;8400;3000;3799;3797;1;12992;25.84;27.04;31,6;BCS1388054;1;1
009535;22.02.2021;23:06:28;Stop          ;04.12.2018;FEY;;LION;49;14500;7200;224;4;98;100;8400;;4154;4154;1;12992;26.64;27.84;30,6;BCS1388054;1;1
009535;04.04.2021;11:50:33;Normalcharge  ;04.12.2018;FEY;;LION;49;14500;7200;224;4;96;99;8400;;4129;4128;1;12996;25.14;25.94;27,9;BCS1388054;2;13
009535;04.04.2021;11:51:48;Stop          ;04.12.2018;FEY;;LION;49;14500;7200;224;4;96;99;8400;;4129;4128;1;12600;25.14;26.34;28,6;BCS1388054;2;13
009535;22.08.2021;11:07:55;Normalcharge  ;04.12.2018;FEY;;LION;49;14500;7200;192;4;81;83;8400;3000;3956;3956;1;12992;22.24;30.84;32,0;BCS1388054;2;2
009535;22.08.2021;11:08:28;Stop          ;04.12.2018;FEY;;LION;49;14500;7200;128;4;81;83;8400;3000;3992;3973;1;12634;22.24;31.94;32,4;BCS1388054;2;2
009535;14.10.2021;12:39:52;Normalcharge  ;04.12.2018;FEY;;LION;49;14500;7200;192;4;56;58;8400;3000;3717;3716;1;12986;24.94;27.44;27,9;BCS1388054;1;12
009535;14.10.2021;12:41:15;Stop          ;04.12.2018;FEY;;LION;49;14500;7200;128;4;56;58;8400;3000;3810;3760;1;12448;25.04;29.54;28,2;BCS1388054;1;12
009535;01.11.2021;09:52:21;Normalcharge  ;04.12.2018;FEY;;LION;49;14500;7200;192;4;55;57;8400;3000;3715;3714;1;12992;26.04;27.14;26,4;BCS1388054;1;12
009535;01.11.2021;09:53:14;Stop          ;04.12.2018;FEY;;LION;49;14500;7200;128;4;55;57;8400;3000;3803;3752;1;12447;26.04;28.64;26,8;BCS1388054;1;12
009535;01.11.2021;10:01:59;Normalcharge  ;04.12.2018;FEY;;LION;49;14500;7200;192;4;55;57;8400;3000;3716;3715;1;12986;26.24;27.64;29,5;BCS1388054;1;12
009535;01.11.2021;10:03:29;Stop          ;04.12.2018;FEY;;LION;49;14500;7200;128;4;56;57;8400;3000;3811;3759;1;12444;26.34;29.44;29,3;BCS1388054;1;12
009535;01.11.2021;10:27:58;Normalcharge  ;04.12.2018;FEY;;LION;49;14500;7200;192;4;56;57;8400;3000;3720;3719;1;12983;26.44;27.54;27,8;BCS1388054;1;12
009535;01.11.2021;10:28:31;Stop          ;04.12.2018;FEY;;LION;49;14500;7200;128;4;56;57;8400;3000;3751;3731;1;12632;26.44;28.44;28,1;BCS1388054;1;12
009535;01.11.2021;10:31:48;Charge to 60% ;04.12.2018;FEY;;LION;49;14500;7200;192;4;56;57;8400;3000;3721;3720;1;12982;26.54;27.44;29,9;BCS1388054;1;12
009535;01.11.2021;11:39:51;Stop   

Note: reader/Batterieverzeichnis_new/009577.txt
009577;29.11.2020;04:42:29;Cycle         ;04.12.2018;FEY;;LION;49;14500;7200;192;2;96;98;8400;;4135;4135;1;12987;23.34;21.54;27,5;BCS1388054;6;16
009577;12.01.2021;04:17:22;Charge to 90% ;04.12.2018;FEY;;LION;49;14500;7200;192;2;95;97;8400;;4116;4116;1;13005;23.24;24.34;23,5;BCS1388054;2;12
009577;12.01.2021;04:54:21;Stop          ;04.12.2018;FEY;;LION;49;14500;7200;192;2;88;90;8400;3000;4053;4053;1;12998;27.94;29.64;31,9;BCS1388054;2;12
009577;12.01.2021;05:21:40;Cycle         ;04.12.2018;FEY;;LION;49;14500;7200;192;2;88;90;8400;3000;4057;4057;1;12998;27.54;27.94;30,6;BCS1388054;2;12
009577;13.01.2021;08:20:19;Stop          ;04.12.2018;FEY;;LION;49;14500;7200;224;3;97;100;8400;;4155;4154;1;12998;27.04;27.94;30,8;BCS1388054;2;12
009577;21.02.2021;13:43:48;Normalcharge  ;04.12.2018;FEY;;LION;49;14500;7200;192;4;21;22;8400;3000;3486;3485;1;13007;23.14;22.74;27,7;BCS1388054;3;2
009577;21.02.2021;20:44:52;Stop           ;04.12.2018;FEY;;LION;49;14500;7200;224;4;97;100;8400;;4164;4163;1;13001;27.24;28.44;31,2;BCS1388054;3;2
009577;04.04.2021;11:50:39;Normalcharge  ;04.12.2018;FEY;;LION;49;14500;7200;192;4;52;54;8400;3000;3684;3682;1;13012;25.14;26.24;28,1;BCS1388054;1;16
009577;04.04.2021;11:51:54;Stop          ;04.12.2018;FEY;;LION;49;14500;7200;128;4;52;54;8400;3000;3772;3722;1;12561;25.14;28.74;28,8;BCS1388054;1;16
009577;05.04.2021;09:38:00;Ladung auf 60% ;04.12.2018;FEY;;LION;49;14500;7200;192;4;52;54;8400;3000;3686;3684;1;13006;25.34;25.54;26,3;BCS1388054;3;18
009577;05.04.2021;10:06:07;Stop           ;04.12.2018;FEY;;LION;49;14500;7200;192;4;58;60;8400;3000;3756;3754;1;13002;27.84;31.94;31,4;BCS1388054;3;18
009577;22.08.2021;11:37:21;Normalcharge  ;04.12.2018;FEY;;LION;49;14500;7200;16576;4;98;100;;;4148;4148;1;13001;21.64;28.94;31,9;BCS1388054;5;12
009577;22.08.2021;11:38:04;Stop          ;04.12.2018;FEY;;LION;49;14500;7200;16576;4;98;100;;;4148;4148;1;12760;21.84;29.14;32,0;BCS1388054;5;12
009577;12.10.2021;12:15:20;Normalcharge  ;04.12.2018;FEY;;LION;49;14500;7200;16576;4;96;99;;;4127;4126;1;13005;23.64;27.44;27,9;BCS1388054;1;6
009577;12.10.2021;12:15:34;Stop          ;04.12.2018;FEY;;LION;49;14500;7200;16576;4;96;99;;;4126;4126;1;12990;23.64;27.64;27,9;BCS1388054;1;6
009577;14.10.2021;12:40:12;Normalcharge  ;04.12.2018;FEY;;LION;49;14500;7200;16576;4;92;95;;;4087;4086;1;13010;23.74;26.14;27,9;BCS1388054;5;2
009577;14.10.2021;12:41:49;Stop          ;04.12.2018;FEY;;LION;49;14500;7200;16576;4;92;95;;;4087;4086;1;12661;23.84;27.64;28,5;BCS1388054;5;2
009577;14.03.2022;12:14:30;Normalcharge  ;04.12.2018;FEY;;LION;49;14500;7200;192;4;88;91;8400;3000;4042;4042;1;13005;24.54;24.44;27,5;BCS1388054;4;9
009577;14.03.2022;12:18:42;Stop          ;04.12.2018;FEY;;LION;49;14500;7200;128;4;88;91;8400;3000;4137;4100;1;12818;24.64;28.64;29,5;BCS1388054;4;9

File: 000121.txt
Serialnumber ; Date ; Time ; Action ; Date of Manufacture ; Manufacturer ; Battery Name ; Device-Chemistry ; Specification-Info ; Design-Capacity [mAh] ; Design-Voltage [mV] ; Battery Status ; Cycle Count ; SOC [%] ; Relativ SOC[%] ; Desired Voltage [mV]; Desired Current [mA]; Cell Voltage 1 [mV] ; Cell Voltage 2 [mV] ; Max_Error [%] ; Busvoltage[mV] ; Battery Temperature [°C] ; Charger Temperature [°C] ; Batterysystem ; Case ; PLace
000121;13.12.2019;13:53:33;Fastcharge    ;28.11.2017;FEY;;LION;49;14500;7200;192;10;83;88;8400;3000;4006;4007;1;13025;22.24;33.74;35,8;BCS1388054;7;3
000121;13.12.2019;13:55:00;Stop          ;28.11.2017;FEY;;LION;49;14500;7200;128;10;83;88;8400;3000;4098;4056;1;12768;22.54;35.24;36,1;BCS1388054;7;3
000121;13.12.2019;13:55:04;Charge to 10% ;28.11.2017;FEY;;LION;49;14500;7200;128;10;83;88;8400;3000;4100;4057;1;13025;22.54;35.34;36,1;BCS1388054;7;3
000121;13.12.2019;13:55:27;Stop          ;28.11.2017;FEY;;LION;49;14500;7200;128;10;83;88;8400;3000;4016;4019;1;13368;22.64;34.14;36,1;BCS1388054;7;3
000121;13.12.2019;13:55:29;Fastcharge    ;28.11.2017;FEY;;LION;49;14500;7200;192;10;81;87;8400;3000;3951;3993;1;13443;22.74;34.14;36,1;BCS1388054;7;3
000121;13.12.2019;13:55:29;Stop          ;28.11.2017;FEY;;LION;49;14500;7200;192;10;81;87;8400;3000;3951;3993;1;13443;22.74;34.14;36,1;BCS1388054;7;3
000121;13.12.2019;13:55:33;Normalcharge  ;28.11.2017;FEY;;LION;49;14500;7200;192;10;81;87;8400;3000;3951;3993;1;13337;22.74;34.14;36,1;BCS1388054;7;3
000121;13.12.2019;13:55:39;Fastcharge    ;28.11.2017;FEY;;LION;49;14500;7200;192;10;81;87;8400;3000;4012;4013;1;13015;22.74;34.14;36,1;BCS1388054;7;3
000121;13.12.2019;13:55:39;Stop          ;28.11.2017;FEY;;LION;49;14500;7200;192;10;81;87;8400;3000;4012;4013;1;13015;22.74;34.14;36,1;BCS1388054;7;3
000121;13.12.2019;13:56:34;Stop          ;28.11.2017;FEY;;LION;49;14500;7200;128;10;81;88;8400;3000;4100;4058;1;12754;22.94;35.04;36,2;BCS1388054;7;3
000121;13.12.2019;13:56:38;Charge to 95% ;28.11.2017;FEY;;LION;49;14500;7200;128;10;81;88;8400;3000;4100;4058;1;13026;22.94;35.04;36,2;BCS1388054;7;3
000121;13.12.2019;13:56:40;Stop          ;28.11.2017;FEY;;LION;49;14500;7200;128;10;81;88;8400;3000;4100;4058;1;13025;22.94;34.94;36,2;BCS1388054;7;3
000121;13.12.2019;13:56:48;Charge to 90% ;28.11.2017;FEY;;LION;49;14500;7200;128;10;81;88;8400;3000;4021;4023;1;13026;22.94;34.44;36,2;BCS1388054;7;3
000121;13.12.2019;15:42:54;Stop          ;28.11.2017;FEY;;LION;49;14500;7200;192;10;83;90;8400;3000;4036;4036;1;12975;28.84;30.94;34,5;BCS1388054;7;3
000121;13.12.2019;15:42:59;Fastcharge    ;28.11.2017;FEY;;LION;49;14500;7200;192;10;83;90;8400;3000;4036;4036;1;13027;28.84;30.94;34,4;BCS1388054;7;3
000121;13.12.2019;21:04:43;Stop          ;28.11.2017;FEY;;LION;49;14500;7200;224;10;93;100;8400;;4148;4148;1;13028;26.94;28.14;31,7;BCS1388054;7;3

File: 001089.txt
Serialnumber ; Date ; Time ; Action ; Date of Manufacture ; Manufacturer ; Battery Name ; Device-Chemistry ; Specification-Info ; Design-Capacity [mAh] ; Design-Voltage [mV] ; Battery Status ; Cycle Count ; SOC [%] ; Relativ SOC[%] ; Desired Voltage [mV]; Desired Current [mA]; Cell Voltage 1 [mV] ; Cell Voltage 2 [mV] ; Max_Error [%] ; Busvoltage[mV] ; Battery Temperature [°C] ; Charger Temperature [°C] ; Batterysystem ; Case ; PLace
001089;10.12.2019;15:29:09;Charge to 30% ;15.02.2018;FEY;;LION;49;14500;7200;224;13;92;99;8400;;4122;4122;1;13011;22.34;25.94;27,1;BCS1388054;6;14
001089;10.12.2019;20:46:41;Stop          ;15.02.2018;FEY;;LION;49;14500;7200;192;14;29;30;8400;3000;3560;3559;1;13009;33.44;35.94;33,6;BCS1388054;6;14
001089;11.12.2019;08:49:03;Fastcharge    ;15.02.2018;FEY;;LION;49;14500;7200;192;14;29;30;8400;3000;3567;3566;1;13010;26.14;28.94;31,9;BCS1388054;6;14
001089;11.12.2019;13:39:30;Stop          ;15.02.2018;FEY;;LION;49;14500;7200;224;14;94;100;8400;;4162;4163;1;13010;30.44;31.64;32,5;BCS1388054;6;14
001089;11.12.2019;15:46:47;Charge to 10% ;15.02.2018;FEY;;LION;49;14500;7200;224;14;96;100;8400;;4156;4156;1;13009;27.04;29.44;31,4;BCS1388054;6;14
001089;11.12.2019;22:52:10;Stop          ;15.02.2018;FEY;;LION;49;14500;7200;192;15;10;10;8400;3000;3355;3355;1;13010;34.14;35.34;33,0;BCS1388054;6;14
001089;12.12.2019;08:45:18;Normalcharge  ;15.02.2018;FEY;;LION;49;14500;7200;192;15;9;9;8400;3000;3364;3364;1;13010;26.34;29.14;31,7;BCS1388054;6;14
001089;12.12.2019;16:41:29;Stop          ;15.02.2018;FEY;;LION;49;14500;7200;224;15;95;100;8400;;4161;4162;1;13010;29.34;30.94;31,5;BCS1388054;6;14
001089;13.12.2019;10:48:09;Charge to 10% ;15.02.2018;FEY;;LION;49;14500;7200;224;15;95;100;8400;;4151;4151;1;13010;26.34;29.14;32,0;BCS1388054;6;14
001089;13.12.2019;13:51:54;Stop          ;15.02.2018;FEY;;LION;49;14500;7200;192;16;57;60;8400;3000;3678;3728;1;13497;34.64;44.44;36,1;BCS1388054;6;14
001089;16.12.2019;07:43:34;Charge to 10% ;15.02.2018;FEY;;LION;49;14500;7200;192;16;57;60;8400;3000;3781;3780;1;13029;22.44;26.14;31,7;BCS1388054;7;3
001089;16.12.2019;11:52:34;Stop          ;15.02.2018;FEY;;LION;49;14500;7200;192;16;10;10;8400;3000;3360;3360;1;13027;31.34;31.64;34,7;BCS1388054;7;3
001089;16.12.2019;14:44:25;Charge to 90% ;15.02.2018;FEY;;LION;49;14500;7200;192;16;10;10;8400;3000;3365;3365;1;13028;28.34;29.04;31,7;BCS1388054;7;3
001089;16.12.2019;20:53:58;Stop          ;15.02.2018;FEY;;LION;49;14500;7200;192;16;84;90;8400;3000;4052;4052;1;13028;30.54;29.94;32,1;BCS1388054;7;3
001089;17.12.2019;08:38:01;Fastcharge    ;15.02.2018;FEY;;LION;49;14500;7200;192;16;85;90;8400;3000;4043;4043;1;13029;25.64;27.54;31,6;BCS1388054;7;3
001089;17.12.2019;10:36:25;Stop          ;15.02.2018;FEY;;LION;49;14500;7200;224;16;94;100;8400;;4159;4160;1;13029;27.14;28.34;31,5;BCS1388054;7;3
001089;17.12.2019;13:38:44;Charge to 10% ;15.02.2018;FEY;;LION;49;14500;7200;224;16;94;100;8400;;4152;4152;1;13028;26.04;27.54;30,8;BCS1388054;7;3
001089;17.12.2019;20:42:03;Stop          ;15.02.2018;FEY;;LION;49;14500;7200;192;18;10;10;8400;3000;3360;3360;1;13029;32.34;31.14;32,6;BCS1388054;7;3
001089;18.12.2019;08:31:43;Fastcharge    ;15.02.2018;FEY;;LION;49;14500;7200;192;18;9;9;8400;3000;3369;3368;1;13028;25.84;27.54;31,6;BCS1388054;7;3
001089;18.12.2019;14:30:48;Stop          ;15.02.2018;FEY;;LION;49;14500;7200;224;18;93;100;8400;;4161;4161;1;13028;28.84;29.04;31,6;BCS1388054;7;3
001089;19.12.2019;08:24:17;Charge to 60% ;15.02.2018;FEY;;LION;49;14500;7200;224;18;94;100;8400;;4150;4150;1;13028;25.74;27.54;31,6;BCS1388054;7;3
001089;19.12.2019;11:28:26;Stop          ;15.02.2018;FEY;;LION;49;14500;7200;192;18;57;60;8400;3000;3772;3772;1;13026;32.54;33.14;35,1;BCS1388054;7;3
001089;19.12.2019;12:16:57;Cycle         ;15.02.2018;FEY;;LION;49;14500;7200;192;18;57;60;8400;3000;3784;3784;1;13028;29.24;29.24;32,7;BCS1388054;7;3
001089;20.12.2019;17:22:28;Stop          ;15.02.2018;FEY;;LION;49;14500;7200;224;19;94;100;8400;;4155;4155;1;13029;26.04;27.74;31,9;BCS1388054;7;3
001089;06.01.2020;06:35:02;Charge to 60% ;15.02.2018;FEY;;LION;49;14500;7200;192;19;92;98;8400;;4123;4124;1;13030;25.84;27.54;31,9;BCS1388054;7;3
001089;06.01.2020;09:29:52;Stop          ;15.02.2018;FEY;;LION;49;14500;7200;192;20;57;60;8400;3000;3767;3767;1;13027;31.74;32.34;34,0;BCS1388054;7;3
001089;06.01.2020;09:50:50;Fastcharge    ;15.02.2018;FEY;;LION;49;14500;7200;192;20;57;60;8400;3000;3778;3779;1;13028;30.24;29.74;32,7;BCS1388054;7;3
001089;06.01.2020;13:05:11;Stop          ;15.02.2018;FEY;;LION;49;14500;7200;224;20;94;100;8400;;4161;4162;1;13029;28.44;29.04;32,4;BCS1388054;7;3

File: 001095.txt
Serialnumber ; Date ; Time ; Action ; Date of Manufacture ; Manufacturer ; Battery Name ; Device-Chemistry ; Specification-Info ; Design-Capacity [mAh] ; Design-Voltage [mV] ; Battery Status ; Cycle Count ; SOC [%] ; Relativ SOC[%] ; Desired Voltage [mV]; Desired Current [mA]; Cell Voltage 1 [mV] ; Cell Voltage 2 [mV] ; Max_Error [%] ; Busvoltage[mV] ; Battery Temperature [°C] ; Charger Temperature [°C] ; Batterysystem ; Case ; PLace
001095;10.12.2019;15:29:09;Charge to 30% ;15.02.2018;FEY;;LION;49;14500;7200;224;12;94;99;8400;;4123;4124;1;13012;22.84;25.64;27,1;BCS1388054;6;8
001095;10.12.2019;20:46:41;Stop          ;15.02.2018;FEY;;LION;49;14500;7200;192;13;29;30;8400;3000;3555;3555;1;13010;33.74;35.34;33,6;BCS1388054;6;8
001095;11.12.2019;08:49:03;Fastcharge    ;15.02.2018;FEY;;LION;49;14500;7200;192;13;29;30;8400;3000;3566;3566;1;13011;26.74;28.54;31,9;BCS1388054;6;8
001095;11.12.2019;13:39:30;Stop          ;15.02.2018;FEY;;LION;49;14500;7200;224;13;96;100;8400;;4163;4163;1;13012;31.14;31.04;32,5;BCS1388054;6;8
001095;11.12.2019;15:46:47;Charge to 10% ;15.02.2018;FEY;;LION;49;14500;7200;224;13;98;100;8400;;4156;4157;1;13013;27.74;28.94;31,4;BCS1388054;6;8
001095;11.12.2019;22:52:10;Stop          ;15.02.2018;FEY;;LION;49;14500;7200;192;14;10;10;8400;3000;3353;3352;1;13012;34.64;34.34;33,0;BCS1388054;6;8
001095;12.12.2019;08:45:18;Normalcharge  ;15.02.2018;FEY;;LION;49;14500;7200;192;14;9;9;8400;3000;3363;3362;1;13012;26.94;28.64;31,7;BCS1388054;6;8
001095;12.12.2019;16:41:29;Stop          ;15.02.2018;FEY;;LION;49;14500;7200;224;14;97;100;8400;;4163;4163;1;13012;30.14;30.34;31,5;BCS1388054;6;8
001095;13.12.2019;10:48:09;Charge to 10% ;15.02.2018;FEY;;LION;49;14500;7200;224;14;97;100;8400;;4152;4152;1;13012;26.94;28.84;32,0;BCS1388054;6;8
001095;13.12.2019;13:51:54;Stop          ;15.02.2018;FEY;;LION;49;14500;7200;192;15;58;61;8400;3000;3686;3735;1;13496;34.84;40.64;36,1;BCS1388054;6;8
001095;13.12.2019;13:53:13;Fastcharge    ;15.02.2018;FEY;;LION;49;14500;7200;192;15;58;61;8400;3000;3769;3768;1;13016;34.84;38.44;35,8;BCS1388054;6;8
001095;13.12.2019;13:53:19;Stop          ;15.02.2018;FEY;;LION;49;14500;7200;192;15;58;61;8400;3000;3769;3768;1;13005;34.84;38.24;35,8;BCS1388054;6;8
001095;13.12.2019;13:53:25;Normalcharge  ;15.02.2018;FEY;;LION;49;14500;7200;192;15;58;61;8400;3000;3769;3769;1;13015;34.84;38.24;35,8;BCS1388054;6;8
001095;13.12.2019;20:04:59;Stop          ;15.02.2018;FEY;;LION;49;14500;7200;224;15;97;100;8400;;4156;4155;1;13019;28.54;29.64;32,0;BCS1388054;6;8
001095;16.12.2019;07:43:27;Charge to 10% ;15.02.2018;FEY;;LION;49;14500;7200;224;15;97;100;8400;;4147;4146;1;13019;26.84;27.74;31,7;BCS1388054;6;8
001095;16.12.2019;14:43:10;Stop          ;15.02.2018;FEY;;LION;49;14500;7200;192;16;10;10;8400;3000;3350;3349;1;13019;32.84;33.34;31,7;BCS1388054;6;8
001095;16.12.2019;14:44:21;Charge to 90% ;15.02.2018;FEY;;LION;49;14500;7200;192;16;10;10;8400;3000;3352;3351;1;13019;32.74;32.34;31,9;BCS1388054;6;8
001095;16.12.2019;20:54:26;Stop          ;15.02.2018;FEY;;LION;49;14500;7200;192;16;86;90;8400;3000;4052;4052;1;13020;33.04;33.34;32,1;BCS1388054;6;8
001095;17.12.2019;08:37:57;Fastcharge    ;15.02.2018;FEY;;LION;49;14500;7200;192;16;86;90;8400;3000;4039;4038;1;13019;26.84;28.54;31,6;BCS1388054;6;8
001095;17.12.2019;13:38:40;Charge to 10% ;15.02.2018;FEY;;LION;49;14500;7200;224;16;97;100;8400;;4154;4152;1;13018;27.14;28.54;30,8;BCS1388054;6;8
001095;17.12.2019;20:41:41;Stop          ;15.02.2018;FEY;;LION;49;14500;7200;192;17;10;10;8400;3000;3348;3346;1;13019;34.64;35.44;32,6;BCS1388054;6;8
001095;18.12.2019;08:31:34;Fastcharge    ;15.02.2018;FEY;;LION;49;14500;7200;192;17;9;9;8400;3000;3362;3360;1;13018;26.94;28.64;31,6;BCS1388054;6;8
001095;18.12.2019;14:33:31;Stop          ;15.02.2018;FEY;;LION;49;14500;7200;224;17;95;100;8400;;4161;4159;1;13020;31.04;30.54;31,4;BCS1388054;6;8
001095;19.12.2019;08:24:06;Charge to 60% ;15.02.2018;FEY;;LION;49;14500;7200;224;17;96;100;8400;;4151;4149;1;13019;26.84;28.54;31,5;BCS1388054;6;8
001095;19.12.2019;11:34:24;Stop          ;15.02.2018;FEY;;LION;49;14500;7200;192;17;58;60;8400;3000;3773;3770;1;13017;34.04;34.14;33,5;BCS1388054;6;8
001095;19.12.2019;12:16:53;Cycle         ;15.02.2018;FEY;;LION;49;14500;7200;192;17;58;60;8400;3000;3782;3780;1;13018;31.24;30.74;32,7;BCS1388054;6;8
001095;20.12.2019;17:31:05;Stop          ;15.02.2018;FEY;;LION;49;14500;7200;224;19;95;100;8400;;4155;4154;1;13020;27.34;28.54;30,6;BCS1388054;6;8
001095;06.01.2020;06:34:58;Charge to 60% ;15.02.2018;FEY;;LION;49;14500;7200;192;19;94;98;8400;;4124;4123;1;13020;27.14;28.64;31,9;BCS1388054;6;8
001095;06.01.2020;09:30:42;Stop          ;15.02.2018;FEY;;LION;49;14500;7200;192;19;58;60;8400;3000;3770;3768;1;13019;33.34;35.24;33,7;BCS1388054;6;8
001095;06.01.2020;09:50:46;Fastcharge    ;15.02.2018;FEY;;LION;49;14500;7200;192;19;58;60;8400;3000;3782;3781;1;13019;32.14;31.24;32,7;BCS1388054;6;8
001095;06.01.2020;13:06:22;Stop          ;15.02.2018;FEY;;LION;49;14500;7200;224;19;96;100;8400;;4160;4160;1;13020;30.64;30.54;32,1;BCS1388054;6;8

File: 009513.txt
Serialnumber ; Date ; Time ; Action ; Date of Manufacture ; Manufacturer ; Battery Name ; Device-Chemistry ; Specification-Info ; Design-Capacity [mAh] ; Design-Voltage [mV] ; Battery Status ; Cycle Count ; SOC [%] ; Relativ SOC[%] ; Desired Voltage [mV]; Desired Current [mA]; Cell Voltage 1 [mV] ; Cell Voltage 2 [mV] ; Max_Error [%] ; Busvoltage[mV] ; Battery Temperature [°C] ; Charger Temperature [°C] ; Batterysystem ; Case ; PLace
009513;07.12.2020;04:14:17;Cycle         ;04.12.2018;FEY;;LION;49;14500;7200;16576;2;99;99;;;4153;4153;1;12990;25.64;26.44;30,3;BCS1388054;1;11
009513;08.12.2020;16:19:38;Stop          ;04.12.2018;FEY;;LION;49;14500;7200;16576;2;99;99;;;4150;4150;1;12990;27.34;27.64;31,9;BCS1388054;1;11
009513;12.01.2021;04:17:36;Charge to 90% ;04.12.2018;FEY;;LION;49;14500;7200;16576;2;97;98;;;4134;4134;1;12997;23.04;23.24;23,6;BCS1388054;5;13
009513;12.01.2021;05:15:37;Stop          ;04.12.2018;FEY;;LION;49;14500;7200;192;2;90;90;8400;3000;4062;4062;1;12993;27.24;28.74;31,6;BCS1388054;5;13
009513;12.01.2021;05:21:53;Cycle         ;04.12.2018;FEY;;LION;49;14500;7200;192;2;90;90;8400;3000;4063;4063;1;12992;27.24;28.44;30,6;BCS1388054;5;13
009513;13.01.2021;08:31:10;Stop          ;04.12.2018;FEY;;LION;49;14500;7200;224;4;97;100;8400;;4156;4157;1;12992;27.14;28.34;31,1;BCS1388054;5;13
009513;22.02.2021;17:31:46;Normalcharge  ;04.12.2018;FEY;;LION;49;14500;7200;192;4;71;73;8400;3000;3881;3881;1;13002;26.44;25.94;31,6;BCS1388054;1;13
009513;22.02.2021;23:06:28;Stop          ;04.12.2018;FEY;;LION;49;14500;7200;224;4;98;100;8400;;4154;4154;1;13004;26.64;27.14;30,6;BCS1388054;1;13
009513;06.04.2021;08:39:10;Normalcharge  ;04.12.2018;FEY;;LION;49;14500;7200;224;4;96;99;8400;;4129;4129;1;13003;21.54;24.74;28,1;BCS1388054;5;6
009513;06.04.2021;08:39:58;Stop          ;04.12.2018;FEY;;LION;49;14500;7200;224;4;96;99;8400;;4129;4129;1;13003;21.54;24.84;28,4;BCS1388054;5;6
009513;08.04.2021;07:58:30;Normalcharge  ;04.12.2018;FEY;;LION;49;14500;7200;224;4;96;99;8400;;4128;4129;1;13004;25.14;24.74;26,4;BCS1388054;5;6
009513;08.04.2021;07:59:28;Stop          ;04.12.2018;FEY;;LION;49;14500;7200;224;4;96;99;8400;;4129;4129;1;13002;25.14;25.14;26,7;BCS1388054;5;6
009513;08.04.2021;10:36:12;Normalcharge  ;04.12.2018;FEY;;LION;49;14500;7200;224;4;96;99;8400;;4129;4128;1;13003;25.34;25.64;28,6;BCS1388054;5;6
009513;08.04.2021;10:37:06;Stop          ;04.12.2018;FEY;;LION;49;14500;7200;224;4;96;99;8400;;4129;4129;1;13002;25.34;25.74;29,0;BCS1388054;5;6
009513;18.04.2021;08:34:16;Normalcharge  ;04.12.2018;FEY;;LION;49;14500;7200;192;4;96;98;8400;;4125;4125;1;13001;26.04;26.14;28,1;BCS1388054;5;6
009513;18.04.2021;08:34:27;Stop          ;04.12.2018;FEY;;LION;49;14500;7200;192;4;96;98;8400;;4125;4125;1;13001;26.04;26.14;28,2;BCS1388054;5;6
009513;04.08.2021;07:24:41;Normalcharge  ;04.12.2018;FEY;;LION;49;14500;7200;192;4;94;96;8400;;4092;4093;1;13002;30.14;30.14;31,5;BCS1388054;5;6
009513;04.08.2021;07:25:23;Stop          ;04.12.2018;FEY;;LION;49;14500;7200;192;4;94;96;8400;;4092;4093;1;13000;30.14;30.44;31,6;BCS1388054;5;6
009513;22.08.2021;11:08:08;Normalcharge  ;04.12.2018;FEY;;LION;49;14500;7200;192;4;94;96;8400;;4088;4088;1;13001;29.84;29.44;32,1;BCS1388054;5;6
009513;22.08.2021;11:08:41;Stop          ;04.12.2018;FEY;;LION;49;14500;7200;192;4;94;96;8400;;4088;4088;1;12865;29.94;29.64;32,5;BCS1388054;5;6

File: 009514.txt
Serialnumber ; Date ; Time ; Action ; Date of Manufacture ; Manufacturer ; Battery Name ; Device-Chemistry ; Specification-Info ; Design-Capacity [mAh] ; Design-Voltage [mV] ; Battery Status ; Cycle Count ; SOC [%] ; Relativ SOC[%] ; Desired Voltage [mV]; Desired Current [mA]; Cell Voltage 1 [mV] ; Cell Voltage 2 [mV] ; Max_Error [%] ; Busvoltage[mV] ; Battery Temperature [°C] ; Charger Temperature [°C] ; Batterysystem ; Case ; PLace
009514;12.01.2021;04:17:22;Charge to 90% ;04.12.2018;FEY;;LION;49;14500;7200;16576;2;97;97;;;4136;4137;1;13006;23.14;24.04;23,5;BCS1388054;2;4
009514;12.01.2021;04:54:21;Stop          ;04.12.2018;FEY;;LION;49;14500;7200;192;2;90;90;8400;3000;4056;4055;1;12996;27.04;30.64;31,9;BCS1388054;2;4
009514;12.01.2021;05:21:40;Cycle         ;04.12.2018;FEY;;LION;49;14500;7200;192;2;90;90;8400;3000;4065;4065;1;12998;27.24;28.54;30,6;BCS1388054;2;4
009514;13.01.2021;08:20:19;Stop          ;04.12.2018;FEY;;LION;49;14500;7200;224;3;96;100;8400;;4156;4158;1;13000;27.04;28.34;30,8;BCS1388054;2;4
009514;21.02.2021;13:43:32;Normalcharge  ;04.12.2018;FEY;;LION;49;14500;7200;192;3;64;66;8400;3000;3811;3813;1;12987;23.34;25.04;27,5;BCS1388054;2;18
009514;21.02.2021;19:27:00;Stop          ;04.12.2018;FEY;;LION;49;14500;7200;224;3;97;100;8400;;4154;4155;1;12986;26.64;28.14;31,1;BCS1388054;2;18
009514;06.04.2021;08:39:21;Normalcharge  ;04.12.2018;FEY;;LION;49;14500;7200;224;3;95;99;8400;;4128;4129;1;13029;21.84;24.64;28,1;BCS1388054;7;13
009514;06.04.2021;08:40:08;Stop          ;04.12.2018;FEY;;LION;49;14500;7200;224;3;95;99;8400;;4129;4130;1;12956;21.94;24.94;28,5;BCS1388054;7;13
009514;08.04.2021;07:59:03;Normalcharge  ;04.12.2018;FEY;;LION;49;14500;7200;224;3;95;99;8400;;4128;4129;1;13030;25.24;24.94;26,4;BCS1388054;7;13
009514;08.04.2021;07:59:16;Stop          ;04.12.2018;FEY;;LION;49;14500;7200;224;3;95;99;8400;;4128;4129;1;13028;25.24;25.04;26,6;BCS1388054;7;13
009514;08.04.2021;10:36:43;Normalcharge  ;04.12.2018;FEY;;LION;49;14500;7200;224;3;95;99;8400;;4128;4129;1;13029;25.44;25.94;28,9;BCS1388054;7;13
009514;08.04.2021;10:37:15;Stop          ;04.12.2018;FEY;;LION;49;14500;7200;224;3;95;99;8400;;4128;4129;1;12967;25.44;26.14;29,2;BCS1388054;7;13
009514;18.04.2021;08:34:46;Normalcharge  ;04.12.2018;FEY;;LION;49;14500;7200;192;3;95;98;8400;;4124;4125;1;13027;26.14;26.64;28,2;BCS1388054;7;13
009514;18.04.2021;08:34:54;Stop          ;04.12.2018;FEY;;LION;49;14500;7200;192;3;95;98;8400;;4124;4125;1;13024;26.14;26.64;28,4;BCS1388054;7;13
009514;04.08.2021;07:24:29;Normalcharge  ;04.12.2018;FEY;;LION;49;14500;7200;192;3;93;96;8400;;4092;4093;1;13024;30.04;30.14;31,5;BCS1388054;7;13
009514;04.08.2021;07:25:08;Stop          ;04.12.2018;FEY;;LION;49;14500;7200;192;3;93;96;8400;;4092;4093;1;12980;30.14;30.44;31,6;BCS1388054;7;13
009514;14.10.2021;12:40:04;Normalcharge  ;04.12.2018;FEY;;LION;49;14500;7200;192;3;89;92;8400;3000;4052;4054;1;13015;25.54;25.84;27,9;BCS1388054;3;14
009514;14.10.2021;12:41:33;Stop           ;04.12.2018;FEY;;LION;49;14500;7200;128;3;89;92;8400;3000;4125;4095;1;12630;25.54;28.94;28,4;BCS1388054;3;14
009514;13.03.2022;12:10:09;Normalcharge  ;04.12.2018;FEY;;LION;49;14500;7200;2768;4;;;8400;3000;3093;3111;1;12998;24.24;24.64;25,6;BCS1388054;3;8
009514;13.03.2022;12:10:50;Stop           ;04.12.2018;FEY;;LION;49;14500;7200;144;4;;;8400;3000;3239;3210;1;12720;24.24;26.44;25,7;BCS1388054;3;8