Folder: Battery_sort_V2/reader/Batterieverzeichnis_new (part 3)

File: 009546.txt
Serialnumber ; Date ; Time ; Action ; Date of Manufacture ; Manufacturer ; Battery Name ; Device-Chemistry ; Specification-Info ; Design-Capacity [mAh] ; Design-Voltage [mV] ; Battery Status ; Cycle Count ; SOC [%] ; Relativ SOC[%] ; Desired Voltage [mV]; Desired Current [mA]; Cell Voltage 1 [mV] ; Cell Voltage 2 [mV] ; Max_Error [%] ; Busvoltage[mV] ; Battery Temperature [°C] ; Charger Temperature [°C] ; Batterysystem ; Case ; PLace
009546;07.12.2020;04:14:28;Cycle         ;03.12.2018;FEY;;LION;49;14500;7200;16576;1;96;98;;;4133;4134;1;13001;25.54;26.94;30,3;BCS1388054;4;6
009546;08.12.2020;16:19:56;Stop          ;03.12.2018;FEY;;LION;49;14500;7200;16576;1;96;98;;;4131;4132;1;13001;27.54;28.24;31,9;BCS1388054;4;6
009546;12.01.2021;04:17:36;Charge to 90% ;03.12.2018;FEY;;LION;49;14500;7200;16576;1;95;97;;;4119;4120;1;13005;22.94;23.04;23,6;BCS1388054;5;10
009546;12.01.2021;05:15:37;Stop          ;03.12.2018;FEY;;LION;49;14500;7200;192;1;90;90;8400;3000;4056;4057;1;12999;26.84;27.74;31,6;BCS1388054;5;10
009546;12.01.2021;05:21:53;Cycle         ;03.12.2018;FEY;;LION;49;14500;7200;192;1;90;90;8400;3000;4057;4058;1;12999;26.84;27.34;30,6;BCS1388054;5;10
009546;13.01.2021;08:31:10;Stop          ;03.12.2018;FEY;;LION;49;14500;7200;224;3;96;100;8400;;4156;4157;1;13001;26.94;27.34;31,1;BCS1388054;5;10
009546;21.02.2021;13:44:55;Normalcharge  ;03.12.2018;FEY;;LION;49;14500;7200;192;3;59;61;8400;3000;3768;3770;1;13009;22.74;22.24;27,7;BCS1388054;5;1
009546;21.02.2021;19:31:36;Stop          ;03.12.2018;FEY;;LION;49;14500;7200;224;3;97;100;8400;;4154;4155;1;13006;26.74;27.74;30,6;BCS1388054;5;1
009546;06.04.2021;08:39:16;Normalcharge  ;03.12.2018;FEY;;LION;49;14500;7200;224;3;95;99;8400;;4128;4129;1;12983;21.04;24.34;28,1;BCS1388054;6;16
009546;06.04.2021;08:40:04;Stop          ;03.12.2018;FEY;;LION;49;14500;7200;224;3;95;99;8400;;4128;4129;1;12963;21.04;24.44;28,5;BCS1388054;6;16
009546;08.04.2021;07:58:44;Normalcharge  ;03.12.2018;FEY;;LION;49;14500;7200;224;3;95;99;8400;;4128;4129;1;12988;25.04;24.04;26,4;BCS1388054;6;16
009546;08.04.2021;07:59:23;Stop          ;03.12.2018;FEY;;LION;49;14500;7200;224;3;95;99;8400;;4128;4128;1;12987;25.04;24.54;26,7;BCS1388054;6;16
009546;08.04.2021;10:36:16;Normalcharge  ;03.12.2018;FEY;;LION;49;14500;7200;224;3;95;99;8400;;4128;4128;1;12986;25.24;25.04;28,6;BCS1388054;6;16
009546;08.04.2021;10:37:11;Stop          ;03.12.2018;FEY;;LION;49;14500;7200;224;3;95;99;8400;;4128;4128;1;12964;25.24;25.44;29,2;BCS1388054;6;16
009546;18.04.2021;08:34:33;Normalcharge  ;03.12.2018;FEY;;LION;49;14500;7200;224;3;95;99;8400;;4124;4124;1;12984;25.94;25.94;28,2;BCS1388054;6;16
009546;18.04.2021;08:34:41;Stop          ;03.12.2018;FEY;;LION;49;14500;7200;224;3;95;99;8400;;4124;4125;1;12983;25.94;25.94;28,2;BCS1388054;6;16
009546;04.08.2021;07:24:35;Normalcharge  ;03.12.2018;FEY;;LION;49;14500;7200;192;3;93;96;8400;;4093;4093;1;12981;29.94;29.54;31,5;BCS1388054;6;16
009546;04.08.2021;07:25:17;Stop          ;03.12.2018;FEY;;LION;49;14500;7200;192;3;93;96;8400;;4093;4093;1;12966;29.94;29.94;31,6;BCS1388054;6;16
009546;22.08.2021;11:37:21;Normalcharge  ;03.12.2018;FEY;;LION;49;14500;7200;192;3;88;92;8400;3000;4045;4046;1;12991;21.34;27.94;31,9;BCS1388054;5;13
009546;22.08.2021;11:38:04;Stop          ;03.12.2018;FEY;;LION;49;14500;7200;128;3;88;92;8400;3000;4079;4064;1;12749;21.44;29.44;32,0;BCS1388054;5;13
009546;12.10.2021;12:59:04;Normalcharge  ;03.12.2018;FEY;;LION;49;14500;7200;192;3;87;90;8400;3000;4030;4031;1;13030;23.44;26.44;28,5;BCS1388054;7;16
009546;12.10.2021;12:59:37;Stop          ;03.12.2018;FEY;;LION;49;14500;7200;128;3;87;90;8400;3000;4044;4038;1;12933;23.54;27.54;28,6;BCS1388054;7;16
009546;01.11.2021;09:52:05;Normalcharge  ;03.12.2018;FEY;;LION;49;14500;7200;192;3;86;89;8400;3000;4023;4024;1;13009;25.24;25.34;26,3;BCS1388054;4;1
009546;01.11.2021;09:53:34;Stop          ;03.12.2018;FEY;;LION;49;14500;7200;128;3;86;89;8400;3000;4109;4070;1;12641;25.24;28.94;27,1;BCS1388054;4;1
009546;01.11.2021;10:02:14;Normalcharge  ;03.12.2018;FEY;;LION;49;14500;7200;192;3;86;89;8400;3000;4026;4027;1;13005;25.34;28.04;29,5;BCS1388054;4;1
009546;01.11.2021;10:03:16;Stop          ;03.12.2018;FEY;;LION;49;14500;7200;128;3;86;89;8400;3000;4102;4068;1;12610;25.44;30.14;29,3;BCS1388054;4;1
009546;28.12.2021;09:01:26;Normalcharge  ;03.12.2018;FEY;;LION;49;14500;7200;192;3;84;88;8400;3000;4008;4009;1;13006;23.64;23.84;25,3;BCS1388054;3;18
009546;28.12.2021;09:02:25;Stop           ;03.12.2018;FEY;;LION;49;14500;7200;128;3;85;88;8400;3000;4101;4058;1;12535;23.64;26.44;25,8;BCS1388054;3;18
009546;13.03.2022;12:10:09;Normalcharge  ;03.12.2018;FEY;;LION;49;14500;7200;192;4;34;36;8400;3000;3576;3576;1;13018;23.94;23.44;25,6;BCS1388054;3;17
009546;13.03.2022;12:10:50;Stop           ;03.12.2018;FEY;;LION;49;14500;7200;128;4;34;36;8400;3000;3613;3592;1;12750;23.94;25.04;25,7;BCS1388054;3;17
009546;14.03.2022;10:33:26;Normalcharge  ;03.12.2018;FEY;;LION;49;14500;7200;192;4;34;36;8400;3000;3576;3576;1;13021;23.94;25.04;25,0;BCS1388054;7;10
009546;14.03.2022;10:37:46;Normalcharge  ;03.12.2018;FEY;;LION;49;14500;7200;128;4;35;36;8400;3000;3674;3627;1;12727;24.24;30.44;27,9;BCS1388054;7;10
009546;14.03.2022;10:37:57;Stop          ;03.12.2018;FEY;;LION;49;14500;7200;128;4;35;36;8400;3000;3675;3625;1;12730;24.24;30.54;27,9;BCS1388054;7;10
009546;05.04.2022;09:15:59;Charge to 60% ;03.12.2018;FEY;;LION;49;14500;7200;192;4;36;37;8400;3000;3579;3579;1;13016;25.24;26.84;26,7;BCS1388054;6;15
009546;05.04.2022;12:05:14;Stop          ;03.12.2018;FEY;;LION;49;14500;7200;192;4;57;60;8400;3000;3729;3729;1;12993;27.74;29.94;28,9;BCS1388054;6;15
009546;17.05.2022;08:54:36;Normalcharge  ;03.12.2018;FEY;;LION;49;14500;7200;192;4;54;56;8400;3000;3711;3711;1;13024;28.64;29.64;31,0;BCS1388054;7;13
009546;17.05.2022;13:41:52;Stop          ;03.12.2018;FEY;;LION;49;14500;7200;224;4;97;100;8400;;4160;4161;1;12956;32.84;34.14;34,0;BCS1388054;7;13

File: 009548.txt
Serialnumber ; Date ; Time ; Action ; Date of Manufacture ; Manufacturer ; Battery Name ; Device-Chemistry ; Specification-Info ; Design-Capacity [mAh] ; Design-Voltage [mV] ; Battery Status ; Cycle Count ; SOC [%] ; Relativ SOC[%] ; Desired Voltage [mV]; Desired Current [mA]; Cell Voltage 1 [mV] ; Cell Voltage 2 [mV] ; Max_Error [%] ; Busvoltage[mV] ; Battery Temperature [°C] ; Charger Temperature [°C] ; Batterysystem ; Case ; PLace
009548;24.11.2020;08:56:08;Normalcharge  ;04.12.2018;FEY;;LION;49;14500;7200;192;1;78;80;8400;3000;3934;3934;1;13016;23.34;25.24;25,7;BCS1388054;1;16
009548;24.11.2020;08:59:34;Stop          ;04.12.2018;FEY;;LION;49;14500;7200;128;1;79;81;8400;3000;4036;3987;1;12915;23.74;29.84;26,4;BCS1388054;1;16
009548;24.11.2020;08:59:41;Normalcharge  ;04.12.2018;FEY;;LION;49;14500;7200;128;1;79;81;8400;3000;3953;3955;1;13012;23.74;29.64;26,4;BCS1388054;1;16
009548;24.11.2020;16:23:04;Stop          ;04.12.2018;FEY;;LION;49;14500;7200;224;1;98;100;8400;;4153;4152;1;13010;26.14;27.74;28,5;BCS1388054;1;16
009548;07.12.2020;04:14:17;Cycle         ;04.12.2018;FEY;;LION;49;14500;7200;224;1;97;100;8400;;4142;4141;1;13005;25.34;27.54;30,3;BCS1388054;1;6
009548;08.12.2020;16:19:38;Stop          ;04.12.2018;FEY;;LION;49;14500;7200;224;2;97;100;8400;;4152;4153;1;13004;26.94;28.64;31,9;BCS1388054;1;6
009548;03.03.2021;08:17:40;Normalcharge  ;04.12.2018;FEY;;LION;49;14500;7200;192;2;67;70;8400;3000;3849;3850;1;13007;22.74;22.84;23,6;BCS1388054;6;12
009548;03.03.2021;11:56:52;Stop          ;04.12.2018;FEY;;LION;49;14500;7200;224;2;97;100;8400;;4159;4159;1;12999;27.34;27.44;31,7;BCS1388054;6;12
009548;06.04.2021;08:38:46;Normalcharge  ;04.12.2018;FEY;;LION;49;14500;7200;224;2;95;99;8400;;4132;4131;1;13013;20.54;26.04;28,1;BCS1388054;2;5
009548;06.04.2021;08:39:36;Stop          ;04.12.2018;FEY;;LION;49;14500;7200;224;2;95;99;8400;;4132;4131;1;13010;20.64;26.44;28,2;BCS1388054;2;5
009548;08.04.2021;07:57:57;Normalcharge  ;04.12.2018;FEY;;LION;49;14500;7200;224;2;95;99;8400;;4132;4131;1;13013;24.94;26.24;26,3;BCS1388054;2;5
009548;08.04.2021;07:59:45;Stop          ;04.12.2018;FEY;;LION;49;14500;7200;224;2;95;99;8400;;4132;4131;1;13009;24.94;26.94;26,8;BCS1388054;2;5
009548;08.04.2021;10:35:00;Normalcharge  ;04.12.2018;FEY;;LION;49;14500;7200;224;2;95;99;8400;;4132;4131;1;13013;25.34;26.64;28,1;BCS1388054;2;5
009548;08.04.2021;10:36:53;Stop          ;04.12.2018;FEY;;LION;49;14500;7200;224;2;95;99;8400;;4132;4131;1;13009;25.34;27.54;28,9;BCS1388054;2;5
009548;18.04.2021;08:33:36;Normalcharge  ;04.12.2018;FEY;;LION;49;14500;7200;224;2;95;99;8400;;4128;4127;1;13009;25.84;27.64;27,7;BCS1388054;2;5
009548;18.04.2021;08:33:44;Stop          ;04.12.2018;FEY;;LION;49;14500;7200;224;2;95;99;8400;;4128;4127;1;13011;25.84;27.64;27,8;BCS1388054;2;5
009548;04.08.2021;07:24:55;Normalcharge  ;04.12.2018;FEY;;LION;49;14500;7200;192;2;92;96;8400;;4093;4093;1;13001;30.14;31.94;31,5;BCS1388054;2;5
009548;04.08.2021;07:25:47;Stop          ;04.12.2018;FEY;;LION;49;14500;7200;192;2;92;96;8400;;4093;4093;1;12998;30.14;32.24;31,9;BCS1388054;2;5
009548;22.08.2021;11:07:59;Normalcharge  ;04.12.2018;FEY;;LION;49;14500;7200;192;2;68;71;8400;3000;3851;3852;1;12998;22.54;30.34;32,1;BCS1388054;3;1
009548;22.08.2021;11:08:33;Stop           ;04.12.2018;FEY;;LION;49;14500;7200;128;2;68;71;8400;3000;3905;3875;1;12711;22.64;31.44;32,4;BCS1388054;3;1
009548;12.10.2021;12:15:28;Normalcharge  ;04.12.2018;FEY;;LION;49;14500;7200;192;2;67;70;8400;3000;3830;3830;1;12986;23.24;27.14;27,9;BCS1388054;2;7
009548;12.10.2021;12:15:46;Stop          ;04.12.2018;FEY;;LION;49;14500;7200;192;2;67;70;8400;3000;3830;3830;1;12983;23.24;27.74;27,9;BCS1388054;2;7
009548;14.10.2021;12:40:22;Normalcharge  ;04.12.2018;FEY;;LION;49;14500;7200;192;2;67;70;8400;3000;3830;3830;1;13007;23.14;26.44;28,1;BCS1388054;7;9
009548;14.10.2021;12:42:05;Stop          ;04.12.2018;FEY;;LION;49;14500;7200;128;2;67;70;8400;3000;3929;3879;1;12720;23.24;29.84;28,5;BCS1388054;7;9
009548;07.02.2022;08:51:51;Normalcharge  ;04.12.2018;FEY;;LION;49;14500;7200;192;2;64;66;8400;3000;3797;3798;1;12992;22.04;23.44;25,6;BCS1388054;1;12
009548;07.02.2022;13:16:30;Stop          ;04.12.2018;FEY;;LION;49;14500;7200;224;2;97;100;8400;;4155;4154;1;12989;24.84;26.84;31,2;BCS1388054;1;12
009548;14.03.2022;12:14:44;Normalcharge  ;04.12.2018;FEY;;LION;49;14500;7200;224;2;96;99;8400;;4129;4128;1;13002;24.04;25.14;27,7;BCS1388054;1;17
009548;14.03.2022;12:15:19;Stop          ;04.12.2018;FEY;;LION;49;14500;7200;224;2;96;99;8400;;4129;4128;1;13001;24.04;25.24;27,9;BCS1388054;1;17
009548;14.03.2022;12:15:29;Normalcharge  ;04.12.2018;FEY;;LION;49;14500;7200;224;2;96;99;8400;;4129;4128;1;13000;24.04;25.34;28,1;BCS1388054;1;17
009548;14.03.2022;12:16:01;Stop          ;04.12.2018;FEY;;LION;49;14500;7200;224;2;96;99;8400;;4129;4128;1;13001;24.04;25.44;28,4;BCS1388054;1;17
009548;14.03.2022;12:17:43;Normalcharge  ;04.12.2018;FEY;;LION;49;14500;7200;224;2;96;99;8400;;4129;4128;1;13000;24.04;25.74;29,2;BCS1388054;1;17
009548;14.03.2022;12:18:20;Stop          ;04.12.2018;FEY;;LION;49;14500;7200;224;2;96;99;8400;;4129;4128;1;13000;24.14;25.74;29,3;BCS1388054;1;17
009548;14.03.2022;12:19:16;Normalcharge  ;04.12.2018;FEY;;LION;49;14500;7200;224;2;96;99;8400;;4129;4128;1;13000;24.14;25.84;29,5;BCS1388054;1;17
009548;14.03.2022;12:19:20;Stop          ;04.12.2018;FEY;;LION;49;14500;7200;224;2;96;99;8400;;4129;4128;1;13000;24.14;25.84;29,6;BCS1388054;1;17

File: 009549.txt
Serialnumber ; Date ; Time ; Action ; Date of Manufacture ; Manufacturer ; Battery Name ; Device-Chemistry ; Specification-Info ; Design-Capacity [mAh] ; Design-Voltage [mV] ; Battery Status ; Cycle Count ; SOC [%] ; Relativ SOC[%] ; Desired Voltage [mV]; Desired Current [mA]; Cell Voltage 1 [mV] ; Cell Voltage 2 [mV] ; Max_Error [%] ; Busvoltage[mV] ; Battery Temperature [°C] ; Charger Temperature [°C] ; Batterysystem ; Case ; PLace
009549;07.12.2020;04:14:28;Cycle         ;04.12.2018;FEY;;LION;49;14500;7200;192;1;97;98;8400;;4120;4118;1;13002;25.74;26.74;30,3;BCS1388054;4;9
009549;08.12.2020;16:19:56;Stop          ;04.12.2018;FEY;;LION;49;14500;7200;192;1;97;98;8400;;4118;4116;1;13003;27.84;28.14;31,9;BCS1388054;4;9
009549;12.01.2021;04:17:36;Charge to 90% ;04.12.2018;FEY;;LION;49;14500;7200;192;1;97;98;8400;;4109;4107;1;13014;23.14;23.64;23,6;BCS1388054;5;11
009549;12.01.2021;05:15:37;Stop          ;04.12.2018;FEY;;LION;49;14500;7200;192;1;83;90;8400;3000;4046;4045;1;13007;27.24;28.04;31,6;BCS1388054;5;11
009549;12.01.2021;05:21:53;Cycle         ;04.12.2018;FEY;;LION;49;14500;7200;192;1;83;90;8400;3000;4046;4045;1;13008;27.24;27.54;30,6;BCS1388054;5;11
009549;13.01.2021;08:31:10;Stop          ;04.12.2018;FEY;;LION;49;14500;7200;224;2;95;100;8400;;4157;4154;1;13008;27.04;27.54;31,1;BCS1388054;5;11
009549;21.02.2021;13:43:32;Normalcharge  ;04.12.2018;FEY;;LION;49;14500;7200;192;2;55;58;8400;3000;3724;3723;1;13000;23.14;24.14;27,5;BCS1388054;2;11
009549;21.02.2021;19:27:00;Stop          ;04.12.2018;FEY;;LION;49;14500;7200;224;2;95;100;8400;;4155;4154;1;13000;26.84;26.84;31,1;BCS1388054;2;11
009549;04.04.2021;11:50:28;Normalcharge  ;04.12.2018;FEY;;LION;49;14500;7200;224;2;94;99;8400;;4130;4129;1;13002;25.14;26.74;27,9;BCS1388054;3;1
009549;04.04.2021;11:51:43;Stop           ;04.12.2018;FEY;;LION;49;14500;7200;224;2;94;99;8400;;4130;4129;1;12796;25.14;27.14;28,6;BCS1388054;3;1
009549;22.08.2021;11:37:25;Normalcharge  ;04.12.2018;FEY;;LION;49;14500;7200;192;2;89;93;8400;3000;4063;4063;1;13003;20.84;27.44;31,9;BCS1388054;4;8
009549;22.08.2021;11:38:13;Stop          ;04.12.2018;FEY;;LION;49;14500;7200;128;2;89;93;8400;3000;4132;4102;1;12642;20.94;29.34;32,1;BCS1388054;4;8
009549;14.10.2021;12:40:13;Normalcharge  ;04.12.2018;FEY;;LION;49;14500;7200;192;2;87;91;8400;3000;4048;4047;1;13010;23.34;26.14;27,9;BCS1388054;5;16
009549;14.10.2021;12:41:50;Stop          ;04.12.2018;FEY;;LION;49;14500;7200;128;2;87;91;8400;3000;4121;4089;1;12636;23.54;28.94;28,5;BCS1388054;5;16

File: 009550.txt
Serialnumber ; Date ; Time ; Action ; Date of Manufacture ; Manufacturer ; Battery Name ; Device-Chemistry ; Specification-Info ; Design-Capacity [mAh] ; Design-Voltage [mV] ; Battery Status ; Cycle Count ; SOC [%] ; Relativ SOC[%] ; Desired Voltage [mV]; Desired Current [mA]; Cell Voltage 1 [mV] ; Cell Voltage 2 [mV] ; Max_Error [%] ; Busvoltage[mV] ; Battery Temperature [°C] ; Charger Temperature [°C] ; Batterysystem ; Case ; PLace
009550;07.02.2021;08:46:54;Normalcharge  ;04.12.2018;FEY;;LION;49;14500;7200;192;3;93;94;8400;3000;4067;4066;1;13008;23.44;24.74;29,2;BCS1388054;3;17
009550;07.02.2021;11:52:16;Stop           ;04.12.2018;FEY;;LION;49;14500;7200;224;3;99;100;8400;;4151;4149;1;13009;25.84;26.54;29,7;BCS1388054;3;17
009550;03.03.2021;08:17:46;Normalcharge  ;04.12.2018;FEY;;LION;49;14500;7200;2768;5;;;8400;3000;3052;3055;1;13031;23.14;23.24;23,6;BCS1388054;7;13
009550;03.03.2021;10:54:05;Stop          ;04.12.2018;FEY;;LION;49;14500;7200;128;5;30;31;8400;3000;3678;3630;1;12703;30.94;38.74;31,4;BCS1388054;7;13
009550;03.03.2021;10:55:49;Normalcharge  ;04.12.2018;FEY;;LION;49;14500;7200;192;5;30;32;8400;3000;3595;3595;1;13024;30.94;34.84;30,6;BCS1388054;7;13
009550;03.03.2021;17:03:24;Stop          ;04.12.2018;FEY;;LION;49;14500;7200;224;5;95;100;8400;;4163;4162;1;13025;26.64;28.24;31,4;BCS1388054;7;13
009550;04.04.2021;11:50:10;Normalcharge  ;04.12.2018;FEY;;LION;49;14500;7200;192;5;51;53;8400;3000;3676;3675;1;13001;24.94;25.84;27,8;BCS1388054;5;14
009550;04.04.2021;11:51:30;Stop          ;04.12.2018;FEY;;LION;49;14500;7200;128;5;51;53;8400;3000;3764;3717;1;12671;25.04;29.44;28,5;BCS1388054;5;14
009550;05.04.2021;09:38:11;Charge to 60% ;04.12.2018;FEY;;LION;49;14500;7200;192;5;51;53;8400;3000;3678;3678;1;13012;25.04;26.44;26,3;BCS1388054;4;10
009550;05.04.2021;10:13:52;Stop          ;04.12.2018;FEY;;LION;49;14500;7200;192;5;57;60;8400;3000;3750;3752;1;13011;27.74;30.14;32,1;BCS1388054;4;10
009550;22.08.2021;11:37:21;Normalcharge  ;04.12.2018;FEY;;LION;49;14500;7200;224;5;98;100;8400;;4156;4155;1;12997;21.24;27.74;31,9;BCS1388054;5;10
009550;22.08.2021;11:38:04;Stop          ;04.12.2018;FEY;;LION;49;14500;7200;224;5;98;100;8400;;4155;4155;1;12732;21.34;28.14;32,0;BCS1388054;5;10
009550;12.10.2021;12:15:28;Normalcharge  ;04.12.2018;FEY;;LION;49;14500;7200;224;5;96;99;8400;;4133;4133;1;12995;23.44;26.34;27,9;BCS1388054;2;13
009550;12.10.2021;12:15:46;Stop          ;04.12.2018;FEY;;LION;49;14500;7200;224;5;96;99;8400;;4134;4133;1;12990;23.54;26.44;27,9;BCS1388054;2;13
009550;14.10.2021;12:40:08;Normalcharge  ;04.12.2018;FEY;;LION;49;14500;7200;224;5;96;99;8400;;4133;4133;1;13012;25.04;26.94;27,9;BCS1388054;4;10
009550;14.10.2021;12:41:43;Stop          ;04.12.2018;FEY;;LION;49;14500;7200;224;5;96;99;8400;;4133;4133;1;12678;25.04;27.64;28,4;BCS1388054;4;10
009550;28.12.2021;09:01:33;Normalcharge  ;04.12.2018;FEY;;LION;49;14500;7200;192;6;58;60;8400;3000;3745;3745;1;13011;23.74;24.44;25,4;BCS1388054;5;4
009550;28.12.2021;09:02:46;Stop          ;04.12.2018;FEY;;LION;49;14500;7200;128;6;58;60;8400;3000;3838;3793;1;12675;23.84;27.24;26,0;BCS1388054;5;4
009550;07.02.2022;08:50:47;Normalcharge  ;04.12.2018;FEY;;LION;49;14500;7200;192;6;57;59;8400;3000;3734;3733;1;13008;22.44;23.14;25,0;BCS1388054;6;2
009550;13.02.2022;10:58:25;Normalcharge  ;04.12.2018;FEY;;LION;49;14500;7200;224;6;97;100;8400;;4141;4141;1;13008;22.64;21.84;26,1;BCS1388054;3;2
009550;13.02.2022;17:19:51;Stop           ;04.12.2018;FEY;;LION;49;14500;7200;224;6;97;100;8400;;4141;4141;1;13000;25.14;26.34;29,0;BCS1388054;3;2
009550;14.03.2022;12:14:16;Normalcharge  ;04.12.2018;FEY;;LION;49;14500;7200;192;6;80;83;8400;3000;3961;3961;1;13035;24.14;24.44;27,4;BCS1388054;7;14
009550;14.03.2022;12:18:09;Stop          ;04.12.2018;FEY;;LION;49;14500;7200;128;6;81;84;8400;3000;4071;4023;1;12811;24.44;30.64;29,3;BCS1388054;7;14
009550;17.05.2022;08:54:10;Normalcharge  ;04.12.2018;FEY;;LION;49;14500;7200;192;6;82;84;8400;3000;3951;3951;1;12992;28.44;29.64;30,8;BCS1388054;2;13
009550;17.05.2022;13:41:00;Stop          ;04.12.2018;FEY;;LION;49;14500;7200;224;6;97;100;8400;;4152;4151;1;12990;30.54;31.94;33,9;BCS1388054;2;13

File: 009556.txt
Serialnumber ; Date ; Time ; Action ; Date of Manufacture ; Manufacturer ; Battery Name ; Device-Chemistry ; Specification-Info ; Design-Capacity [mAh] ; Design-Voltage [mV] ; Battery Status ; Cycle Count ; SOC [%] ; Relativ SOC[%] ; Desired Voltage [mV]; Desired Current [mA]; Cell Voltage 1 [mV] ; Cell Voltage 2 [mV] ; Max_Error [%] ; Busvoltage[mV] ; Battery Temperature [°C] ; Charger Temperature [°C] ; Batterysystem ; Case ; PLace
009556;07.12.2020;04:14:28;Cycle         ;04.12.2018;FEY;;LION;49;14500;7200;16576;2;96;98;;;4142;4147;1;12993;25.84;28.54;30,3;BCS1388054;4;3
009556;08.12.2020;16:19:56;Stop          ;04.12.2018;FEY;;LION;49;14500;7200;16576;2;96;98;;;4140;4144;1;12993;28.04;30.04;31,9;BCS1388054;4;3
009556;12.01.2021;04:17:40;Charge to 90% ;04.12.2018;FEY;;LION;49;14500;7200;16576;2;95;97;;;4126;4130;1;13011;23.24;23.04;23,6;BCS1388054;6;4
009556;12.01.2021;05:00:55;Stop          ;04.12.2018;FEY;;LION;49;14500;7200;192;3;88;90;8400;3000;4062;4064;1;13006;27.24;28.24;31,2;BCS1388054;6;4
009556;12.01.2021;05:21:57;Cycle         ;04.12.2018;FEY;;LION;49;14500;7200;192;3;88;90;8400;3000;4065;4067;1;13007;27.24;27.24;30,4;BCS1388054;6;4
009556;13.01.2021;08:31:18;Stop          ;04.12.2018;FEY;;LION;49;14500;7200;224;4;97;100;8400;;4156;4158;1;13007;26.94;27.34;31,1;BCS1388054;6;4
009556;21.02.2021;13:44:56;Normalcharge  ;04.12.2018;FEY;;LION;49;14500;7200;192;4;51;52;8400;3000;3674;3674;1;13014;23.24;23.04;27,7;BCS1388054;5;4
009556;21.02.2021;19:31:36;Stop          ;04.12.2018;FEY;;LION;49;14500;7200;224;4;98;100;8400;;4155;4156;1;13009;27.14;27.84;30,6;BCS1388054;5;4
009556;06.04.2021;08:39:03;Normalcharge  ;04.12.2018;FEY;;LION;49;14500;7200;224;4;96;99;8400;;4128;4129;1;13004;21.04;24.84;28,1;BCS1388054;4;14
009556;06.04.2021;08:39:53;Stop          ;04.12.2018;FEY;;LION;49;14500;7200;224;4;96;99;8400;;4128;4129;1;13002;21.04;25.14;28,4;BCS1388054;4;14
009556;08.04.2021;07:58:12;Normalcharge  ;04.12.2018;FEY;;LION;49;14500;7200;224;4;96;99;8400;;4128;4128;1;13002;25.44;16.14;26,3;BCS1388054;4;14
009556;08.04.2021;07:59:34;Stop          ;04.12.2018;FEY;;LION;49;14500;7200;224;4;96;99;8400;;4128;4128;1;12985;25.44;25.54;26,7;BCS1388054;4;14
009556;08.04.2021;10:36:07;Normalcharge  ;04.12.2018;FEY;;LION;49;14500;7200;224;4;96;99;8400;;4128;4129;1;13003;25.64;25.74;28,5;BCS1388054;4;14
009556;08.04.2021;10:37:03;Stop          ;04.12.2018;FEY;;LION;49;14500;7200;224;4;96;99;8400;;4128;4128;1;12981;25.64;26.14;29,0;BCS1388054;4;14
009556;18.04.2021;08:34:04;Normalcharge  ;04.12.2018;FEY;;LION;49;14500;7200;192;4;96;98;8400;;4124;4125;1;13002;26.34;26.54;27,9;BCS1388054;4;14
009556;18.04.2021;08:34:10;Stop          ;04.12.2018;FEY;;LION;49;14500;7200;192;4;96;98;8400;;4124;4125;1;13002;26.34;26.64;28,1;BCS1388054;4;14
009556;04.08.2021;07:24:46;Normalcharge  ;04.12.2018;FEY;;LION;49;14500;7200;192;4;94;96;8400;;4093;4093;1;12998;30.44;30.54;31,5;BCS1388054;4;14
009556;04.08.2021;07:25:30;Stop          ;04.12.2018;FEY;;LION;49;14500;7200;192;4;94;96;8400;;4092;4093;1;12975;30.44;30.84;31,7;BCS1388054;4;14
009556;22.08.2021;11:37:13;Normalcharge  ;04.12.2018;FEY;;LION;49;14500;7200;192;4;94;96;8400;;4088;4088;1;13017;23.04;29.24;31,9;BCS1388054;7;7
009556;22.08.2021;11:37:48;Stop          ;04.12.2018;FEY;;LION;49;14500;7200;192;4;94;96;8400;;4088;4088;1;12996;23.14;29.34;31,9;BCS1388054;7;7
009556;14.10.2021;12:40:04;Normalcharge  ;04.12.2018;FEY;;LION;49;14500;7200;192;4;91;93;8400;3000;4074;4074;1;13003;25.54;26.64;27,9;BCS1388054;3;12
009556;14.10.2021;12:41:33;Stop           ;04.12.2018;FEY;;LION;49;14500;7200;128;4;91;93;8400;3000;4139;4114;1;12608;25.64;28.34;28,4;BCS1388054;3;12
009556;28.12.2021;09:01:25;Normalcharge  ;04.12.2018;FEY;;LION;49;14500;7200;192;4;85;87;8400;3000;4006;4007;1;13009;23.74;24.04;25,3;BCS1388054;3;5
009556;28.12.2021;09:02:24;Stop           ;04.12.2018;FEY;;LION;49;14500;7200;128;4;85;87;8400;3000;4097;4056;1;12560;23.74;26.04;25,8;BCS1388054;3;5
009556;14.03.2022;12:14:21;Normalcharge  ;04.12.2018;FEY;;LION;49;14500;7200;192;5;62;64;8400;3000;3789;3786;1;12996;23.94;24.74;27,5;BCS1388054;6;7
009556;14.03.2022;12:18:18;Stop          ;04.12.2018;FEY;;LION;49;14500;7200;128;5;63;65;8400;3000;3894;3848;1;12810;24.24;30.24;29,3;BCS1388054;6;7
009556;17.05.2022;08:54:14;Normalcharge  ;04.12.2018;FEY;;LION;49;14500;7200;192;5;63;65;8400;3000;3764;3760;1;13000;28.54;28.94;30,8;BCS1388054;3;16
009556;17.05.2022;12:55:21;Stop           ;04.12.2018;FEY;;LION;49;14500;7200;224;5;98;100;8400;;4164;4165;1;12998;31.84;31.74;34,1;BCS1388054;3;16