Folder: Battery_sort_V2/reader/Batterieverzeichnis (part 11)

File: 009781.txt
Serialnumber ; Date ; Time ; Action ; Date of Manufacture ; Manufacturer ; Battery Name ; Device-Chemistry ; Specification-Info ; Design-Capacity [mAh] ; Design-Voltage [mV] ; Battery Status ; Cycle Count ; SOC [%] ; Relativ SOC[%] ; Desired Voltage [mV]; Desired Current [mA]; Cell Voltage 1 [mV] ; Cell Voltage 2 [mV] ; Max_Error [%] ; Busvoltage[mV] ; Battery Temperature [°C] ; Charger Temperature [°C] ; Batterysystem ; Case ; PLace
009781;12.01.2021;04:17:28;Ladung auf 90% ;04.12.2018;FEY;;LION;49;14500;7200;16576;2;96;99;;;4133;4132;1;13006;23.04;22.64;23,6;BCS1388054;3;16
009781;12.01.2021;04:57:30;Stop           ;04.12.2018;FEY;;LION;49;14500;7200;192;2;83;90;8400;3000;4031;4029;1;13002;27.04;32.24;31,5;BCS1388054;3;16
009781;12.01.2021;05:21:45;Cycle          ;04.12.2018;FEY;;LION;49;14500;7200;192;2;83;90;8400;3000;4050;4049;1;13003;27.24;27.34;30,4;BCS1388054;3;16
009781;13.01.2021;08:23:25;Stop           ;04.12.2018;FEY;;LION;49;14500;7200;224;3;96;100;8400;;4156;4157;1;13002;27.14;27.34;31,4;BCS1388054;3;16
009781;22.02.2021;17:31:59;Normalcharge  ;04.12.2018;FEY;;LION;49;14500;7200;192;3;72;74;8400;3000;3891;3892;1;13002;26.34;27.54;31,6;BCS1388054;2;2
009781;22.02.2021;21:53:27;Stop          ;04.12.2018;FEY;;LION;49;14500;7200;224;3;98;100;8400;;4154;4154;1;13002;26.84;29.04;31,7;BCS1388054;2;2
009781;06.04.2021;08:39:03;Normalcharge  ;04.12.2018;FEY;;LION;49;14500;7200;224;3;96;99;8400;;4129;4128;1;13007;21.34;25.64;28,1;BCS1388054;4;7
009781;06.04.2021;08:39:53;Stop          ;04.12.2018;FEY;;LION;49;14500;7200;224;3;96;99;8400;;4129;4128;1;13005;21.34;25.94;28,4;BCS1388054;4;7
009781;08.04.2021;07:58:12;Normalcharge  ;04.12.2018;FEY;;LION;49;14500;7200;224;3;96;99;8400;;4128;4128;1;13007;25.24;24.54;26,3;BCS1388054;4;7
009781;08.04.2021;07:59:34;Stop          ;04.12.2018;FEY;;LION;49;14500;7200;224;3;96;99;8400;;4128;4128;1;12978;25.24;26.44;26,7;BCS1388054;4;7
009781;08.04.2021;10:36:07;Normalcharge  ;04.12.2018;FEY;;LION;49;14500;7200;224;3;96;99;8400;;4128;4128;1;13006;25.44;26.64;28,5;BCS1388054;4;7
009781;08.04.2021;10:37:03;Stop          ;04.12.2018;FEY;;LION;49;14500;7200;224;3;96;99;8400;;4128;4128;1;12973;25.44;27.04;29,0;BCS1388054;4;7
009781;18.04.2021;08:34:04;Normalcharge  ;04.12.2018;FEY;;LION;49;14500;7200;224;3;96;99;8400;;4125;4124;1;13005;26.14;27.44;27,9;BCS1388054;4;7
009781;18.04.2021;08:34:10;Stop          ;04.12.2018;FEY;;LION;49;14500;7200;224;3;96;99;8400;;4125;4124;1;13005;26.14;27.44;28,1;BCS1388054;4;7
009781;04.08.2021;07:24:46;Normalcharge  ;04.12.2018;FEY;;LION;49;14500;7200;192;3;93;96;8400;;4093;4092;1;13002;30.24;31.34;31,5;BCS1388054;4;7
009781;04.08.2021;07:25:30;Stop          ;04.12.2018;FEY;;LION;49;14500;7200;192;3;93;96;8400;;4093;4092;1;12970;30.24;31.74;31,7;BCS1388054;4;7
009781;22.08.2021;11:08:05;Normalcharge  ;04.12.2018;FEY;;LION;49;14500;7200;192;3;88;93;8400;3000;4064;4064;1;12997;22.84;29.84;32,1;BCS1388054;4;6
009781;22.08.2021;11:08:37;Stop          ;04.12.2018;FEY;;LION;49;14500;7200;128;3;88;93;8400;3000;4103;4086;1;12686;22.94;30.74;32,5;BCS1388054;4;6
009781;14.10.2021;12:39:51;Normalcharge  ;04.12.2018;FEY;;LION;49;14500;7200;192;3;86;89;8400;3000;4025;4025;1;13002;25.14;27.14;27,9;BCS1388054;1;3
009781;14.10.2021;12:41:14;Stop          ;04.12.2018;FEY;;LION;49;14500;7200;128;3;87;89;8400;3000;4107;4070;1;12487;25.24;30.54;28,2;BCS1388054;1;3
009781;28.12.2021;09:01:33;Normalcharge  ;04.12.2018;FEY;;LION;49;14500;7200;192;3;69;73;8400;3000;3868;3868;1;13006;23.84;23.64;25,4;BCS1388054;5;10
009781;28.12.2021;09:02:46;Stop          ;04.12.2018;FEY;;LION;49;14500;7200;128;3;69;73;8400;3000;3962;3915;1;12662;23.84;26.34;26,0;BCS1388054;5;10
009781;07.02.2022;08:50:47;Normalcharge  ;04.12.2018;FEY;;LION;49;14500;7200;192;3;69;73;8400;3000;3860;3861;1;13015;22.44;22.34;25,0;BCS1388054;6;3
009781;13.02.2022;10:58:25;Normalcharge  ;04.12.2018;FEY;;LION;49;14500;7200;224;3;96;100;8400;;4141;4140;1;13010;22.64;22.54;26,1;BCS1388054;3;10
009781;13.02.2022;17:19:51;Stop           ;04.12.2018;FEY;;LION;49;14500;7200;224;3;96;100;8400;;4141;4141;1;13003;25.04;26.14;29,0;BCS1388054;3;10
009781;14.03.2022;12:14:16;Normalcharge  ;04.12.2018;FEY;;LION;49;14500;7200;192;3;91;95;8400;3000;4090;4089;1;13021;24.14;24.94;27,4;BCS1388054;7;7
009781;14.03.2022;12:18:09;Stop          ;04.12.2018;FEY;;LION;49;14500;7200;128;3;91;96;8400;3000;4164;4140;1;12808;24.24;28.94;29,3;BCS1388054;7;7

File: 009787.txt
Serialnumber ; Date ; Time ; Action ; Date of Manufacture ; Manufacturer ; Battery Name ; Device-Chemistry ; Specification-Info ; Design-Capacity [mAh] ; Design-Voltage [mV] ; Battery Status ; Cycle Count ; SOC [%] ; Relativ SOC[%] ; Desired Voltage [mV]; Desired Current [mA]; Cell Voltage 1 [mV] ; Cell Voltage 2 [mV] ; Max_Error [%] ; Busvoltage[mV] ; Battery Temperature [°C] ; Charger Temperature [°C] ; Batterysystem ; Case ; PLace
009787;07.12.2020;04:14:17;Cycle         ;04.12.2018;FEY;;LION;49;14500;7200;224;3;99;99;8400;;4129;4129;1;13007;25.54;26.74;30,3;BCS1388054;1;13
009787;08.12.2020;16:19:38;Stop          ;04.12.2018;FEY;;LION;49;14500;7200;224;4;97;100;8400;;4152;4151;1;13008;27.44;28.14;31,9;BCS1388054;1;13
009787;03.03.2021;08:17:17;Normalcharge  ;04.12.2018;FEY;;LION;49;14500;7200;192;4;93;96;8400;;4096;4095;1;13014;23.04;23.84;23,5;BCS1388054;2;3
009787;04.03.2021;07:53:45;Stop          ;04.12.2018;FEY;;LION;49;14500;7200;192;4;93;96;8400;;4095;4094;1;13006;26.34;28.84;31,6;BCS1388054;2;3
009787;04.04.2021;11:50:10;Normalcharge  ;04.12.2018;FEY;;LION;49;14500;7200;192;5;17;18;8400;3000;3433;3430;1;13017;24.74;25.94;27,8;BCS1388054;5;18
009787;04.04.2021;11:51:30;Stop          ;04.12.2018;FEY;;LION;49;14500;7200;128;5;17;18;8400;3000;3530;3481;1;12665;24.84;29.14;28,5;BCS1388054;5;18
009787;05.04.2021;09:38:17;Charge to 60% ;04.12.2018;FEY;;LION;49;14500;7200;192;5;17;18;8400;3000;3437;3434;1;13012;24.94;26.14;26,4;BCS1388054;5;16
009787;05.04.2021;10:34:50;Charge to 60% ;04.12.2018;FEY;;LION;49;14500;7200;128;5;29;30;8400;3000;3653;3603;1;12910;28.44;34.04;32,4;BCS1388054;5;16
009787;05.04.2021;13:16:09;Stop          ;04.12.2018;FEY;;LION;49;14500;7200;192;5;58;60;8400;3000;3770;3764;1;13007;29.04;29.64;32,2;BCS1388054;5;16
009787;22.08.2021;11:37:30;Normalcharge  ;04.12.2018;FEY;;LION;49;14500;7200;192;5;54;56;8400;3000;3702;3702;1;12996;21.44;27.84;31,9;BCS1388054;3;2
009787;22.08.2021;11:38:19;Stop           ;04.12.2018;FEY;;LION;49;14500;7200;128;5;54;56;8400;3000;3790;3742;1;12578;21.64;30.14;32,1;BCS1388054;3;2

File: 009790.txt
Serialnumber ; Date ; Time ; Action ; Date of Manufacture ; Manufacturer ; Battery Name ; Device-Chemistry ; Specification-Info ; Design-Capacity [mAh] ; Design-Voltage [mV] ; Battery Status ; Cycle Count ; SOC [%] ; Relativ SOC[%] ; Desired Voltage [mV]; Desired Current [mA]; Cell Voltage 1 [mV] ; Cell Voltage 2 [mV] ; Max_Error [%] ; Busvoltage[mV] ; Battery Temperature [°C] ; Charger Temperature [°C] ; Batterysystem ; Case ; PLace
009790;07.12.2020;04:14:17;Cycle         ;03.12.2018;FEY;;LION;49;14500;7200;16576;2;96;100;;;4140;4140;1;13003;25.34;27.54;30,3;BCS1388054;1;7
009790;08.12.2020;16:19:38;Stop          ;03.12.2018;FEY;;LION;49;14500;7200;16576;2;96;100;;;4137;4138;1;13004;27.24;28.84;31,9;BCS1388054;1;7
009790;07.02.2021;08:46:42;Normalcharge  ;03.12.2018;FEY;;LION;49;14500;7200;16576;2;94;98;;;4115;4115;1;12992;23.24;25.64;29,2;BCS1388054;1;4
009790;07.02.2021;11:52:07;Stop          ;03.12.2018;FEY;;LION;49;14500;7200;16576;2;94;98;;;4115;4115;1;12991;25.34;26.44;29,7;BCS1388054;1;4
009790;03.03.2021;08:17:21;Normalcharge  ;03.12.2018;FEY;;LION;49;14500;7200;16576;3;89;93;;;4070;4070;1;13007;22.84;23.44;23,5;BCS1388054;3;12
009790;04.03.2021;07:53:40;Stop           ;03.12.2018;FEY;;LION;49;14500;7200;16576;3;89;93;;;4069;4069;1;13002;26.04;27.04;31,5;BCS1388054;3;12
009790;04.04.2021;11:50:28;Normalcharge  ;03.12.2018;FEY;;LION;49;14500;7200;192;3;44;46;8400;3000;3633;3633;1;13002;24.64;25.94;27,9;BCS1388054;3;12
009790;04.04.2021;11:51:43;Stop           ;03.12.2018;FEY;;LION;49;14500;7200;128;3;44;47;8400;3000;3719;3671;1;12776;24.74;27.74;28,6;BCS1388054;3;12
009790;05.04.2021;09:38:17;Charge to 60% ;03.12.2018;FEY;;LION;49;14500;7200;192;3;44;47;8400;3000;3634;3634;1;13015;24.74;26.74;26,4;BCS1388054;5;15
009790;05.04.2021;10:34:50;Charge to 60% ;03.12.2018;FEY;;LION;49;14500;7200;128;3;56;58;8400;3000;3826;3781;1;12912;28.84;36.64;32,4;BCS1388054;5;15
009790;05.04.2021;13:16:09;Stop          ;03.12.2018;FEY;;LION;49;14500;7200;192;3;57;60;8400;3000;3743;3747;1;13010;27.64;30.54;32,2;BCS1388054;5;15
009790;22.08.2021;11:37:30;Normalcharge  ;03.12.2018;FEY;;LION;49;14500;7200;192;3;52;55;8400;3000;3692;3692;1;13001;21.24;28.04;31,9;BCS1388054;3;4
009790;22.08.2021;11:38:19;Stop           ;03.12.2018;FEY;;LION;49;14500;7200;128;3;52;55;8400;3000;3778;3731;1;12573;21.34;30.24;32,1;BCS1388054;3;4

File: 009794.txt
Serialnumber ; Date ; Time ; Action ; Date of Manufacture ; Manufacturer ; Battery Name ; Device-Chemistry ; Specification-Info ; Design-Capacity [mAh] ; Design-Voltage [mV] ; Battery Status ; Cycle Count ; SOC [%] ; Relativ SOC[%] ; Desired Voltage [mV]; Desired Current [mA]; Cell Voltage 1 [mV] ; Cell Voltage 2 [mV] ; Max_Error [%] ; Busvoltage[mV] ; Battery Temperature [°C] ; Charger Temperature [°C] ; Batterysystem ; Case ; PLace
009794;07.12.2020;04:14:32;Cycle         ;04.12.2018;FEY;;LION;49;14500;7200;192;1;97;98;8400;;4127;4128;1;12997;25.74;27.74;30,3;BCS1388054;5;14
009794;08.12.2020;16:20:01;Stop          ;04.12.2018;FEY;;LION;49;14500;7200;192;1;97;98;8400;;4125;4126;1;12995;27.84;29.44;31,7;BCS1388054;5;14
009794;07.02.2021;08:46:59;Normalcharge  ;04.12.2018;FEY;;LION;49;14500;7200;192;1;93;94;8400;3000;4083;4084;1;13009;23.64;26.14;29,2;BCS1388054;4;1
009794;07.02.2021;11:52:20;Stop          ;04.12.2018;FEY;;LION;49;14500;7200;224;1;99;100;8400;;4150;4152;1;13007;25.94;27.44;29,7;BCS1388054;4;1
009794;03.03.2021;08:17:08;Normalcharge  ;04.12.2018;FEY;;LION;49;14500;7200;192;1;96;98;8400;;4117;4118;1;13012;23.14;23.94;23,5;BCS1388054;1;6
009794;04.03.2021;07:53:51;Stop          ;04.12.2018;FEY;;LION;49;14500;7200;192;1;96;98;8400;;4116;4117;1;13006;26.04;27.34;31,6;BCS1388054;1;6
009794;06.04.2021;08:39:21;Normalcharge  ;04.12.2018;FEY;;LION;49;14500;7200;192;1;95;97;8400;;4106;4107;1;13027;21.24;25.54;28,1;BCS1388054;7;12
009794;06.04.2021;08:40:08;Stop          ;04.12.2018;FEY;;LION;49;14500;7200;192;1;95;97;8400;;4106;4107;1;12948;21.34;25.54;28,5;BCS1388054;7;12
009794;08.04.2021;07:59:03;Normalcharge  ;04.12.2018;FEY;;LION;49;14500;7200;192;1;95;97;8400;;4106;4107;1;13022;25.24;25.74;26,4;BCS1388054;7;12
009794;08.04.2021;07:59:16;Stop          ;04.12.2018;FEY;;LION;49;14500;7200;192;1;95;97;8400;;4106;4107;1;13021;25.24;25.74;26,6;BCS1388054;7;12
009794;08.04.2021;10:36:43;Normalcharge  ;04.12.2018;FEY;;LION;49;14500;7200;192;1;95;97;8400;;4106;4107;1;13021;25.34;26.24;28,9;BCS1388054;7;12
009794;08.04.2021;10:37:15;Stop          ;04.12.2018;FEY;;LION;49;14500;7200;192;1;95;97;8400;;4106;4107;1;12954;25.44;26.34;29,2;BCS1388054;7;12
009794;18.04.2021;08:34:46;Normalcharge  ;04.12.2018;FEY;;LION;49;14500;7200;192;1;95;97;8400;;4103;4104;1;13019;26.14;27.14;28,2;BCS1388054;7;12
009794;18.04.2021;08:34:54;Stop          ;04.12.2018;FEY;;LION;49;14500;7200;192;1;95;97;8400;;4103;4104;1;13016;26.14;27.14;28,4;BCS1388054;7;12
009794;04.08.2021;07:24:29;Normalcharge  ;04.12.2018;FEY;;LION;49;14500;7200;192;1;95;97;8400;;4075;4077;1;13017;30.04;31.04;31,5;BCS1388054;7;12
009794;04.08.2021;07:25:08;Stop          ;04.12.2018;FEY;;LION;49;14500;7200;192;1;95;97;8400;;4075;4077;1;12971;30.04;31.24;31,6;BCS1388054;7;12

File: 009796.txt
Serialnumber ; Date ; Time ; Action ; Date of Manufacture ; Manufacturer ; Battery Name ; Device-Chemistry ; Specification-Info ; Design-Capacity [mAh] ; Design-Voltage [mV] ; Battery Status ; Cycle Count ; SOC [%] ; Relativ SOC[%] ; Desired Voltage [mV]; Desired Current [mA]; Cell Voltage 1 [mV] ; Cell Voltage 2 [mV] ; Max_Error [%] ; Busvoltage[mV] ; Battery Temperature [°C] ; Charger Temperature [°C] ; Batterysystem ; Case ; PLace
009796;07.12.2020;04:14:21;Cycle         ;04.12.2018;FEY;;LION;49;14500;7200;16576;2;98;99;;;4151;4152;1;12985;25.54;28.24;30,3;BCS1388054;2;7
009796;08.12.2020;16:19:44;Stop          ;04.12.2018;FEY;;LION;49;14500;7200;16576;2;98;99;;;4148;4149;1;12985;27.74;29.94;31,9;BCS1388054;2;7
009796;07.02.2021;08:46:49;Normalcharge  ;04.12.2018;FEY;;LION;49;14500;7200;16576;2;95;96;;;4107;4107;1;12992;23.34;25.44;29,2;BCS1388054;2;13
009796;07.02.2021;11:52:12;Stop          ;04.12.2018;FEY;;LION;49;14500;7200;16576;2;95;96;;;4107;4107;1;12993;25.64;27.14;29,7;BCS1388054;2;13
009796;03.03.2021;08:17:17;Normalcharge  ;04.12.2018;FEY;;LION;49;14500;7200;16576;2;93;94;;;4088;4089;1;13014;23.04;23.14;23,5;BCS1388054;2;16
009796;04.03.2021;07:53:46;Stop          ;04.12.2018;FEY;;LION;49;14500;7200;16576;2;93;94;;;4088;4088;1;13005;26.24;27.54;31,6;BCS1388054;2;16
009796;04.04.2021;11:50:02;Normalcharge  ;04.12.2018;FEY;;LION;49;14500;7200;192;3;49;50;8400;3000;3657;3655;1;13000;24.84;27.34;27,7;BCS1388054;6;2
009796;04.04.2021;11:51:24;Stop          ;04.12.2018;FEY;;LION;49;14500;7200;128;3;49;50;8400;3000;3743;3694;1;12682;24.84;30.74;28,5;BCS1388054;6;2
009796;05.04.2021;09:38:17;Charge to 60% ;04.12.2018;FEY;;LION;49;14500;7200;192;3;49;50;8400;3000;3658;3657;1;13002;24.84;25.24;26,4;BCS1388054;5;10
009796;05.04.2021;10:34:50;Charge to 60% ;04.12.2018;FEY;;LION;49;14500;7200;192;3;59;60;8400;3000;3755;3750;1;12901;28.04;28.64;32,4;BCS1388054;5;10
009796;05.04.2021;13:16:09;Stop          ;04.12.2018;FEY;;LION;49;14500;7200;192;3;59;60;8400;3000;3750;3746;1;12998;27.64;28.44;32,2;BCS1388054;5;10
009796;22.08.2021;11:07:50;Normalcharge  ;04.12.2018;FEY;;LION;49;14500;7200;192;3;40;40;8400;3000;3595;3593;1;12984;22.24;30.44;32,0;BCS1388054;1;9
009796;22.08.2021;11:08:23;Stop          ;04.12.2018;FEY;;LION;49;14500;7200;128;3;40;41;8400;3000;3656;3619;1;12598;22.34;31.54;32,4;BCS1388054;1;9
009796;25.08.2021;08:14:57;Charge to 60% ;04.12.2018;FEY;;LION;49;14500;7200;192;3;39;40;8400;3000;3596;3595;1;12994;30.14;32.14;33,2;BCS1388054;6;9
009796;25.08.2021;09:50:39;Stop          ;04.12.2018;FEY;;LION;49;14500;7200;128;3;59;60;8400;3000;3838;3785;1;12994;35.34;39.14;36,4;BCS1388054;6;9
009796;01.11.2021;09:52:06;Normalcharge  ;04.12.2018;FEY;;LION;49;14500;7200;2768;4;;;8400;3000;3117;3080;1;13004;24.04;24.84;26,3;BCS1388054;4;17
009796;01.11.2021;09:53:35;Stop          ;04.12.2018;FEY;;LION;49;14500;7200;144;4;;;8400;3000;3291;3213;1;12606;24.14;28.74;27,1;BCS1388054;4;17
009796;01.11.2021;10:02:14;Normalcharge  ;04.12.2018;FEY;;LION;49;14500;7200;720;4;;;8400;3000;3146;3114;1;12998;24.44;27.04;29,5;BCS1388054;4;17
009796;01.11.2021;10:03:16;Stop          ;04.12.2018;FEY;;LION;49;14500;7200;144;4;;;8400;3000;3299;3223;1;12563;24.44;29.54;29,3;BCS1388054;4;17
009796;01.11.2021;10:18:21;Normalcharge  ;04.12.2018;FEY;;LION;49;14500;7200;720;4;;;8400;3000;3160;3129;1;13000;24.94;26.44;28,4;BCS1388054;4;17
009796;01.11.2021;10:19:03;Stop          ;04.12.2018;FEY;;LION;49;14500;7200;144;4;;;8400;3000;3298;3224;1;12552;25.04;28.34;28,2;BCS1388054;4;17
009796;01.11.2021;10:28:22;Normalcharge  ;04.12.2018;FEY;;LION;49;14500;7200;720;4;;;8400;3000;3166;3136;1;13000;25.24;26.74;27,9;BCS1388054;4;17
009796;01.11.2021;10:29:09;Stop          ;04.12.2018;FEY;;LION;49;14500;7200;144;4;;;8400;3000;3304;3231;1;12548;25.24;28.84;28,5;BCS1388054;4;17
009796;01.11.2021;10:32:29;Charge to 60% ;04.12.2018;FEY;;LION;49;14500;7200;720;4;;;8400;3000;3175;3146;1;13000;25.34;27.14;29,7;BCS1388054;4;17
009796;01.11.2021;15:19:33;Stop          ;04.12.2018;FEY;;LION;49;14500;7200;192;4;57;60;8400;3000;3809;3810;1;12999;30.04;30.34;32,7;BCS1388054;4;17
009796;07.02.2022;08:50:52;Normalcharge  ;04.12.2018;FEY;;LION;49;14500;7200;192;4;55;58;8400;3000;3741;3740;1;13013;22.14;22.34;25,0;BCS1388054;5;11
009796;07.02.2022;13:22:36;Stop          ;04.12.2018;FEY;;LION;49;14500;7200;224;4;96;100;8400;;4158;4162;1;13005;26.44;26.04;28,5;BCS1388054;5;11
009796;14.03.2022;12:14:21;Normalcharge  ;04.12.2018;FEY;;LION;49;14500;7200;224;4;96;99;8400;;4130;4132;1;12995;23.74;25.34;27,5;BCS1388054;6;10
009796;14.03.2022;12:18:18;Stop          ;04.12.2018;FEY;;LION;49;14500;7200;224;4;96;99;8400;;4130;4132;1;12826;23.84;26.34;29,3;BCS1388054;6;10
009796;29.03.2022;08:20:53;Normalcharge  ;04.12.2018;FEY;;LION;49;14500;7200;192;4;86;88;8400;3000;4012;4014;1;13012;24.64;24.84;25,7;BCS1388054;5;9
009796;29.03.2022;08:21:28;Stop          ;04.12.2018;FEY;;LION;49;14500;7200;128;4;86;88;8400;3000;4031;4025;1;12832;24.64;26.04;25,8;BCS1388054;5;9
009796;29.03.2022;08:22:15;Normalcharge  ;04.12.2018;FEY;;LION;49;14500;7200;128;4;86;88;8400;3000;4013;4017;1;13012;24.64;25.84;26,3;BCS1388054;5;9
009796;29.03.2022;08:22:21;Stop          ;04.12.2018;FEY;;LION;49;14500;7200;128;4;86;88;8400;3000;4013;4016;1;13001;24.64;25.84;26,3;BCS1388054;5;9

File: 009797.txt
Serialnumber ; Date ; Time ; Action ; Date of Manufacture ; Manufacturer ; Battery Name ; Device-Chemistry ; Specification-Info ; Design-Capacity [mAh] ; Design-Voltage [mV] ; Battery Status ; Cycle Count ; SOC [%] ; Relativ SOC[%] ; Desired Voltage [mV]; Desired Current [mA]; Cell Voltage 1 [mV] ; Cell Voltage 2 [mV] ; Max_Error [%] ; Busvoltage[mV] ; Battery Temperature [°C] ; Charger Temperature [°C] ; Batterysystem ; Case ; PLace
009797;07.12.2020;04:14:17;Cycle         ;04.12.2018;FEY;;LION;49;14500;7200;224;2;98;99;8400;;4147;4147;1;13001;25.94;28.94;30,3;BCS1388054;1;15
009797;08.12.2020;16:19:38;Stop          ;04.12.2018;FEY;;LION;49;14500;7200;224;3;97;100;8400;;4151;4152;1;13000;27.74;30.44;31,9;BCS1388054;1;15
009797;03.03.2021;08:17:21;Normalcharge  ;04.12.2018;FEY;;LION;49;14500;7200;192;3;89;92;8400;3000;4058;4059;1;13012;23.44;23.94;23,5;BCS1388054;3;13
009797;04.03.2021;07:53:40;Stop           ;04.12.2018;FEY;;LION;49;14500;7200;224;3;98;100;8400;;4146;4147;1;13005;26.84;28.84;31,5;BCS1388054;3;13
009797;04.04.2021;11:50:10;Normalcharge  ;04.12.2018;FEY;;LION;49;14500;7200;192;3;53;55;8400;3000;3698;3699;1;12998;25.24;26.74;27,8;BCS1388054;5;7
009797;04.04.2021;11:51:30;Stop          ;04.12.2018;FEY;;LION;49;14500;7200;128;3;53;55;8400;3000;3784;3738;1;12681;25.34;29.84;28,5;BCS1388054;5;7
009797;05.04.2021;09:38:00;Ladung auf 60% ;04.12.2018;FEY;;LION;49;14500;7200;192;3;53;55;8400;3000;3701;3701;1;13008;25.24;25.94;26,3;BCS1388054;3;10
009797;05.04.2021;10:06:07;Stop           ;04.12.2018;FEY;;LION;49;14500;7200;192;3;57;60;8400;3000;3758;3761;1;13003;27.14;29.14;31,4;BCS1388054;3;10
009797;22.08.2021;11:08:14;Normalcharge  ;04.12.2018;FEY;;LION;49;14500;7200;192;3;53;55;8400;3000;3700;3700;1;12986;30.14;30.94;32,2;BCS1388054;6;13
009797;22.08.2021;11:08:47;Stop          ;04.12.2018;FEY;;LION;49;14500;7200;128;3;53;55;8400;3000;3719;3709;1;12780;30.14;32.04;32,5;BCS1388054;6;13
009797;25.08.2021;08:13:04;Normalcharge  ;04.12.2018;FEY;;LION;49;14500;7200;192;3;53;54;8400;3000;3686;3687;1;13020;30.74;31.74;32,4;BCS1388054;7;10
009797;25.08.2021;08:13:16;Stop          ;04.12.2018;FEY;;LION;49;14500;7200;192;3;53;54;8400;3000;3687;3687;1;13009;30.74;32.04;32,5;BCS1388054;7;10
009797;25.08.2021;08:14:41;Charge to 60% ;04.12.2018;FEY;;LION;49;14500;7200;192;3;53;54;8400;3000;3686;3687;1;13014;30.74;32.04;33,0;BCS1388054;7;10
009797;25.08.2021;08:37:46;Stop          ;04.12.2018;FEY;;LION;49;14500;7200;128;3;57;59;8400;3000;3835;3786;1;12730;32.44;39.14;36,1;BCS1388054;7;10
009797;25.08.2021;08:38:03;Charge to 60% ;04.12.2018;FEY;;LION;49;14500;7200;128;3;57;59;8400;3000;3752;3753;1;13014;32.54;38.04;36,1;BCS1388054;7;10
009797;25.08.2021;13:26:36;Stop          ;04.12.2018;FEY;;LION;49;14500;7200;192;3;58;60;8400;3000;3743;3744;1;13014;32.94;33.94;36,4;BCS1388054;7;10
009797;01.11.2021;09:51:55;Normalcharge  ;04.12.2018;FEY;;LION;49;14500;7200;192;3;55;57;8400;3000;3714;3714;1;13009;26.04;26.04;26,3;BCS1388054;6;3
009797;01.11.2021;09:53:45;Stop          ;04.12.2018;FEY;;LION;49;14500;7200;128;3;56;57;8400;3000;3809;3761;1;12639;26.14;30.54;27,3;BCS1388054;6;3
009797;01.11.2021;10:02:24;Normalcharge  ;04.12.2018;FEY;;LION;49;14500;7200;192;3;56;57;8400;3000;3718;3719;1;13002;26.24;28.74;29,5;BCS1388054;6;3
009797;01.11.2021;10:03:07;Stop          ;04.12.2018;FEY;;LION;49;14500;7200;128;3;56;57;8400;3000;3783;3747;1;12641;26.24;29.94;29,3;BCS1388054;6;3
009797;01.11.2021;10:27:30;Normalcharge  ;04.12.2018;FEY;;LION;49;14500;7200;192;3;56;57;8400;3000;3719;3719;1;13006;26.54;26.74;27,8;BCS1388054;6;3
009797;01.11.2021;10:29:18;Stop          ;04.12.2018;FEY;;LION;49;14500;7200;128;3;56;58;8400;3000;3813;3766;1;12638;26.64;31.34;28,6;BCS1388054;6;3

File: 009798.txt
Serialnumber ; Date ; Time ; Action ; Date of Manufacture ; Manufacturer ; Battery Name ; Device-Chemistry ; Specification-Info ; Design-Capacity [mAh] ; Design-Voltage [mV] ; Battery Status ; Cycle Count ; SOC [%] ; Relativ SOC[%] ; Desired Voltage [mV]; Desired Current [mA]; Cell Voltage 1 [mV] ; Cell Voltage 2 [mV] ; Max_Error [%] ; Busvoltage[mV] ; Battery Temperature [°C] ; Charger Temperature [°C] ; Batterysystem ; Case ; PLace
009798;12.01.2021;04:17:28;Ladung auf 90% ;03.12.2018;FEY;;LION;49;14500;7200;16576;2;92;92;;;4067;4066;1;12999;22.74;23.94;23,6;BCS1388054;3;8
009798;12.01.2021;04:57:30;Stop           ;03.12.2018;FEY;;LION;49;14500;7200;192;2;91;90;8400;3000;4055;4054;1;12993;25.74;30.44;31,5;BCS1388054;3;8
009798;12.01.2021;05:21:45;Cycle          ;03.12.2018;FEY;;LION;49;14500;7200;192;2;91;90;8400;3000;4055;4054;1;12995;26.44;28.84;30,4;BCS1388054;3;8
009798;13.01.2021;08:23:25;Stop           ;03.12.2018;FEY;;LION;49;14500;7200;224;3;98;100;8400;;4156;4154;1;12993;27.04;28.84;31,4;BCS1388054;3;8
009798;21.02.2021;13:44:56;Normalcharge  ;03.12.2018;FEY;;LION;49;14500;7200;192;4;65;67;8400;3000;3826;3826;1;13013;22.54;23.24;27,7;BCS1388054;5;3
009798;21.02.2021;19:31:36;Stop          ;03.12.2018;FEY;;LION;49;14500;7200;224;4;98;100;8400;;4154;4154;1;13007;26.74;28.84;30,6;BCS1388054;5;3
009798;08.04.2021;07:57:52;Normalcharge  ;03.12.2018;FEY;;LION;49;14500;7200;224;4;97;99;8400;;4125;4125;1;13005;24.94;24.74;26,3;BCS1388054;1;10
009798;08.04.2021;07:59:50;Stop          ;03.12.2018;FEY;;LION;49;14500;7200;224;4;97;99;8400;;4126;4125;1;12947;24.94;25.64;26,8;BCS1388054;1;10
009798;08.04.2021;10:34:35;Normalcharge  ;03.12.2018;FEY;;LION;49;14500;7200;224;4;97;99;8400;;4126;4125;1;12999;26.04;26.64;28,1;BCS1388054;1;10
009798;08.04.2021;10:36:49;Stop          ;03.12.2018;FEY;;LION;49;14500;7200;224;4;97;99;8400;;4126;4125;1;12889;26.04;26.84;28,9;BCS1388054;1;10
009798;18.04.2021;08:33:24;Normalcharge  ;03.12.2018;FEY;;LION;49;14500;7200;224;4;97;99;8400;;4122;4122;1;12998;25.84;26.04;27,7;BCS1388054;1;10
009798;18.04.2021;08:33:29;Stop          ;03.12.2018;FEY;;LION;49;14500;7200;224;4;97;99;8400;;4122;4122;1;12994;25.84;26.04;27,7;BCS1388054;1;10
009798;04.08.2021;07:25:01;Normalcharge  ;03.12.2018;FEY;;LION;49;14500;7200;192;4;94;96;8400;;4092;4091;1;12996;30.24;30.24;31,5;BCS1388054;1;10
009798;04.08.2021;07:25:57;Stop          ;03.12.2018;FEY;;LION;49;14500;7200;192;4;94;96;8400;;4092;4091;1;12782;30.24;30.54;31,9;BCS1388054;1;10
009798;22.08.2021;11:07:59;Normalcharge  ;03.12.2018;FEY;;LION;49;14500;7200;192;4;54;56;8400;3000;3704;3703;1;13007;22.44;29.94;32,1;BCS1388054;3;3
009798;22.08.2021;11:08:33;Stop           ;03.12.2018;FEY;;LION;49;14500;7200;128;4;54;56;8400;3000;3761;3728;1;12713;22.54;31.14;32,4;BCS1388054;3;3
009798;25.08.2021;08:15:02;Charge to 60% ;03.12.2018;FEY;;LION;49;14500;7200;192;4;54;56;8400;3000;3706;3706;1;13005;29.94;32.04;33,2;BCS1388054;5;16
009798;25.08.2021;13:03:31;Stop          ;03.12.2018;FEY;;LION;49;14500;7200;192;4;58;60;8400;3000;3758;3760;1;13004;32.34;34.54;36,6;BCS1388054;5;16
009798;01.11.2021;10:18:16;Normalcharge  ;03.12.2018;FEY;;LION;49;14500;7200;192;4;56;57;8400;3000;3724;3724;1;12999;25.74;25.74;28,2;BCS1388054;3;16
009798;01.11.2021;10:18:56;Stop           ;03.12.2018;FEY;;LION;49;14500;7200;128;4;56;57;8400;3000;3798;3755;1;12599;25.74;27.24;28,2;BCS1388054;3;16
009798;01.11.2021;10:27:50;Normalcharge  ;03.12.2018;FEY;;LION;49;14500;7200;192;4;56;57;8400;3000;3725;3725;1;12998;25.74;26.04;27,8;BCS1388054;3;16
009798;01.11.2021;10:29:05;Stop           ;03.12.2018;FEY;;LION;49;14500;7200;128;4;56;58;8400;3000;3816;3769;1;12557;25.84;28.64;28,5;BCS1388054;3;16