Folder: Battery_sort_V2/reader/Batterieverzeichnis (part 4)

File: 009587.txt
Serialnumber ; Date ; Time ; Action ; Date of Manufacture ; Manufacturer ; Battery Name ; Device-Chemistry ; Specification-Info ; Design-Capacity [mAh] ; Design-Voltage [mV] ; Battery Status ; Cycle Count ; SOC [%] ; Relativ SOC[%] ; Desired Voltage [mV]; Desired Current [mA]; Cell Voltage 1 [mV] ; Cell Voltage 2 [mV] ; Max_Error [%] ; Busvoltage[mV] ; Battery Temperature [°C] ; Charger Temperature [°C] ; Batterysystem ; Case ; PLace
009587;07.02.2021;08:46:49;Normalcharge  ;04.12.2018;FEY;;LION;49;14500;7200;192;2;96;96;8400;;4112;4111;1;12999;23.74;26.04;29,2;BCS1388054;2;17
009587;07.02.2021;11:52:12;Stop          ;04.12.2018;FEY;;LION;49;14500;7200;192;2;96;96;8400;;4111;4111;1;13001;25.94;27.64;29,7;BCS1388054;2;17
009587;03.03.2021;08:17:21;Normalcharge  ;04.12.2018;FEY;;LION;49;14500;7200;192;3;94;93;8400;3000;4086;4085;1;13012;23.34;23.34;23,5;BCS1388054;3;10
009587;04.03.2021;07:53:40;Stop           ;04.12.2018;FEY;;LION;49;14500;7200;224;3;101;100;8400;;4148;4147;1;13006;26.64;27.54;31,5;BCS1388054;3;10
009587;04.04.2021;11:49:55;Normalcharge  ;04.12.2018;FEY;;LION;49;14500;7200;192;3;53;54;8400;3000;3690;3691;1;13033;25.24;25.14;27,5;BCS1388054;7;16
009587;04.04.2021;11:51:17;Stop          ;04.12.2018;FEY;;LION;49;14500;7200;128;3;53;55;8400;3000;3779;3732;1;12734;25.24;28.04;28,4;BCS1388054;7;16
009587;05.04.2021;09:37:46;Charge to 60% ;04.12.2018;FEY;;LION;49;14500;7200;192;3;53;55;8400;3000;3693;3694;1;13002;25.14;26.64;26,1;BCS1388054;2;12
009587;05.04.2021;10:03:48;Stop          ;04.12.2018;FEY;;LION;49;14500;7200;192;3;58;60;8400;3000;3761;3763;1;12998;27.44;28.64;31,4;BCS1388054;2;12
009587;22.08.2021;11:37:21;Normalcharge  ;04.12.2018;FEY;;LION;49;14500;7200;2768;4;;;8400;3000;2501;2641;1;13013;22.34;28.14;31,9;BCS1388054;5;8
009587;22.08.2021;11:38:04;Stop          ;04.12.2018;FEY;;LION;49;14500;7200;2768;4;;;8400;3000;2501;2640;1;12756;22.54;29.44;32,0;BCS1388054;5;8

File: 009591.txt
Serialnumber ; Date ; Time ; Action ; Date of Manufacture ; Manufacturer ; Battery Name ; Device-Chemistry ; Specification-Info ; Design-Capacity [mAh] ; Design-Voltage [mV] ; Battery Status ; Cycle Count ; SOC [%] ; Relativ SOC[%] ; Desired Voltage [mV]; Desired Current [mA]; Cell Voltage 1 [mV] ; Cell Voltage 2 [mV] ; Max_Error [%] ; Busvoltage[mV] ; Battery Temperature [°C] ; Charger Temperature [°C] ; Batterysystem ; Case ; PLace
009591;29.11.2020;04:25:09;Cycle         ;03.12.2018;FEY;;LION;49;14500;7200;192;3;20;20;8400;3000;3471;3469;1;13003;24.74;26.14;25,6;BCS1388054;1;3
009591;07.02.2021;08:47:00;Normalcharge  ;03.12.2018;FEY;;LION;49;14500;7200;192;4;89;92;8400;3000;4051;4050;1;13012;23.14;25.84;29,2;BCS1388054;4;10
009591;07.02.2021;11:52:20;Stop          ;03.12.2018;FEY;;LION;49;14500;7200;224;4;98;100;8400;;4151;4149;1;13011;25.44;27.04;29,7;BCS1388054;4;10
009591;03.03.2021;08:17:21;Normalcharge  ;03.12.2018;FEY;;LION;49;14500;7200;192;4;89;92;8400;3000;4063;4062;1;13023;22.74;22.74;23,5;BCS1388054;3;14
009591;04.03.2021;07:53:40;Stop           ;03.12.2018;FEY;;LION;49;14500;7200;224;4;97;100;8400;;4147;4146;1;13015;26.14;27.74;31,5;BCS1388054;3;14
009591;04.04.2021;11:50:02;Normalcharge  ;03.12.2018;FEY;;LION;49;14500;7200;192;5;52;54;8400;3000;3690;3687;1;13012;24.54;26.24;27,7;BCS1388054;6;3
009591;04.04.2021;11:51:24;Stop          ;03.12.2018;FEY;;LION;49;14500;7200;128;5;52;54;8400;3000;3777;3728;1;12689;24.54;29.74;28,5;BCS1388054;6;3
009591;05.04.2021;09:38:11;Charge to 60% ;03.12.2018;FEY;;LION;49;14500;7200;192;5;52;54;8400;3000;3692;3689;1;13010;24.54;26.24;26,3;BCS1388054;4;1
009591;05.04.2021;10:13:52;Stop          ;03.12.2018;FEY;;LION;49;14500;7200;192;5;57;60;8400;3000;3761;3754;1;13008;26.84;29.54;32,1;BCS1388054;4;1
009591;22.08.2021;11:07:50;Normalcharge  ;03.12.2018;FEY;;LION;49;14500;7200;192;5;43;45;8400;3000;3619;3617;1;12991;21.84;30.14;32,0;BCS1388054;1;5
009591;22.08.2021;11:08:23;Stop          ;03.12.2018;FEY;;LION;49;14500;7200;128;5;43;45;8400;3000;3669;3640;1;12621;21.94;31.04;32,4;BCS1388054;1;5
009591;25.08.2021;08:14:57;Charge to 60% ;03.12.2018;FEY;;LION;49;14500;7200;192;5;43;45;8400;3000;3621;3619;1;12996;29.84;31.84;33,2;BCS1388054;6;11
009591;25.08.2021;09:50:39;Stop          ;03.12.2018;FEY;;LION;49;14500;7200;192;5;58;60;8400;3000;3737;3734;1;12997;33.54;34.34;36,4;BCS1388054;6;11
009591;01.11.2021;09:52:06;Normalcharge  ;03.12.2018;FEY;;LION;49;14500;7200;192;5;54;56;8400;3000;3704;3702;1;13004;24.04;24.94;26,3;BCS1388054;4;13
009591;01.11.2021;09:53:35;Stop          ;03.12.2018;FEY;;LION;49;14500;7200;128;5;54;56;8400;3000;3795;3746;1;12609;24.14;28.74;27,1;BCS1388054;4;13
009591;01.11.2021;10:02:14;Normalcharge  ;03.12.2018;FEY;;LION;49;14500;7200;192;5;54;56;8400;3000;3708;3705;1;12999;24.44;27.14;29,5;BCS1388054;4;13
009591;01.11.2021;10:03:16;Stop          ;03.12.2018;FEY;;LION;49;14500;7200;128;5;54;56;8400;3000;3795;3747;1;12588;24.54;29.74;29,3;BCS1388054;4;13
009591;01.11.2021;10:18:21;Normalcharge  ;03.12.2018;FEY;;LION;49;14500;7200;192;5;54;56;8400;3000;3710;3707;1;13000;24.94;26.54;28,4;BCS1388054;4;13
009591;01.11.2021;10:19:03;Stop          ;03.12.2018;FEY;;LION;49;14500;7200;128;5;54;56;8400;3000;3786;3740;1;12568;24.94;28.34;28,2;BCS1388054;4;13
009591;01.11.2021;10:28:22;Normalcharge  ;03.12.2018;FEY;;LION;49;14500;7200;192;5;54;56;8400;3000;3711;3708;1;13006;25.14;26.74;27,9;BCS1388054;4;13
009591;01.11.2021;10:29:09;Stop          ;03.12.2018;FEY;;LION;49;14500;7200;128;5;54;56;8400;3000;3792;3744;1;12579;25.14;28.74;28,5;BCS1388054;4;13

File: 009594.txt
Serialnumber ; Date ; Time ; Action ; Date of Manufacture ; Manufacturer ; Battery Name ; Device-Chemistry ; Specification-Info ; Design-Capacity [mAh] ; Design-Voltage [mV] ; Battery Status ; Cycle Count ; SOC [%] ; Relativ SOC[%] ; Desired Voltage [mV]; Desired Current [mA]; Cell Voltage 1 [mV] ; Cell Voltage 2 [mV] ; Max_Error [%] ; Busvoltage[mV] ; Battery Temperature [°C] ; Charger Temperature [°C] ; Batterysystem ; Case ; PLace
009594;07.12.2020;04:14:40;Cycle         ;03.12.2018;FEY;;LION;49;14500;7200;192;1;96;97;8400;;4136;4135;1;13031;25.04;27.54;30,3;BCS1388054;7;5
009594;08.12.2020;16:20:20;Stop          ;03.12.2018;FEY;;LION;49;14500;7200;192;1;96;97;8400;;4134;4133;1;13031;26.94;28.74;31,9;BCS1388054;7;5
009594;12.01.2021;04:17:36;Charge to 90% ;03.12.2018;FEY;;LION;49;14500;7200;192;1;96;97;8400;;4121;4120;1;13014;22.44;23.74;23,6;BCS1388054;5;4
009594;12.01.2021;05:15:37;Stop          ;03.12.2018;FEY;;LION;49;14500;7200;192;1;90;90;8400;3000;4061;4061;1;13007;26.64;28.64;31,6;BCS1388054;5;4
009594;12.01.2021;05:21:53;Cycle         ;03.12.2018;FEY;;LION;49;14500;7200;192;1;90;90;8400;3000;4062;4061;1;13008;26.64;28.04;30,6;BCS1388054;5;4
009594;13.01.2021;08:31:10;Stop          ;03.12.2018;FEY;;LION;49;14500;7200;224;2;98;100;8400;;4156;4155;1;13008;26.34;28.14;31,1;BCS1388054;5;4
009594;21.02.2021;13:45:29;Normalcharge  ;03.12.2018;FEY;;LION;49;14500;7200;224;2;97;99;8400;;4131;4131;1;13003;22.34;22.84;27,8;BCS1388054;6;7
009594;06.04.2021;08:39:21;Normalcharge  ;03.12.2018;FEY;;LION;49;14500;7200;192;2;95;97;8400;;4113;4113;1;13023;20.94;24.04;28,1;BCS1388054;7;15
009594;06.04.2021;08:40:08;Stop          ;03.12.2018;FEY;;LION;49;14500;7200;192;2;95;97;8400;;4113;4112;1;12934;21.04;24.44;28,5;BCS1388054;7;15
009594;08.04.2021;07:59:03;Normalcharge  ;03.12.2018;FEY;;LION;49;14500;7200;192;2;95;97;8400;;4113;4112;1;13022;24.54;24.44;26,4;BCS1388054;7;15
009594;08.04.2021;07:59:16;Stop          ;03.12.2018;FEY;;LION;49;14500;7200;192;2;95;97;8400;;4113;4112;1;13021;24.54;24.44;26,6;BCS1388054;7;15
009594;08.04.2021;10:36:43;Normalcharge  ;03.12.2018;FEY;;LION;49;14500;7200;192;2;95;97;8400;;4113;4112;1;13017;24.74;25.34;28,9;BCS1388054;7;15
009594;08.04.2021;10:37:15;Stop          ;03.12.2018;FEY;;LION;49;14500;7200;192;2;95;97;8400;;4113;4112;1;12944;24.74;25.54;29,2;BCS1388054;7;15
009594;18.04.2021;08:34:46;Normalcharge  ;03.12.2018;FEY;;LION;49;14500;7200;192;2;95;97;8400;;4110;4109;1;13021;25.44;26.14;28,2;BCS1388054;7;15
009594;18.04.2021;08:34:54;Stop          ;03.12.2018;FEY;;LION;49;14500;7200;192;2;95;97;8400;;4110;4109;1;13017;25.44;26.14;28,4;BCS1388054;7;15
009594;04.08.2021;07:24:29;Normalcharge  ;03.12.2018;FEY;;LION;49;14500;7200;192;2;95;97;8400;;4083;4082;1;13018;29.44;29.44;31,5;BCS1388054;7;15
009594;04.08.2021;07:25:08;Stop          ;03.12.2018;FEY;;LION;49;14500;7200;192;2;95;97;8400;;4082;4082;1;12967;29.44;29.84;31,6;BCS1388054;7;15
009594;14.10.2021;12:40:04;Normalcharge  ;03.12.2018;FEY;;LION;49;14500;7200;192;2;91;93;8400;3000;4066;4065;1;13009;24.84;25.54;27,9;BCS1388054;3;17
009594;14.10.2021;12:41:33;Stop           ;03.12.2018;FEY;;LION;49;14500;7200;128;2;91;93;8400;3000;4133;4104;1;12599;24.94;28.64;28,4;BCS1388054;3;17
009594;28.12.2021;09:01:25;Normalcharge  ;03.12.2018;FEY;;LION;49;14500;7200;192;2;86;88;8400;3000;4013;4013;1;13007;22.94;23.64;25,3;BCS1388054;3;4
009594;28.12.2021;09:02:24;Stop           ;03.12.2018;FEY;;LION;49;14500;7200;128;2;86;88;8400;3000;4101;4060;1;12567;23.04;26.04;25,8;BCS1388054;3;4
009594;14.03.2022;10:33:51;Normalcharge  ;03.12.2018;FEY;;LION;49;14500;7200;192;3;38;38;8400;3000;3590;3590;1;13000;23.54;25.64;25,3;BCS1388054;5;7
009594;14.03.2022;10:38:12;Stop          ;03.12.2018;FEY;;LION;49;14500;7200;128;3;38;39;8400;3000;3684;3638;1;12697;23.74;31.64;28,1;BCS1388054;5;7

File: 009597.txt
Serialnumber ; Date ; Time ; Action ; Date of Manufacture ; Manufacturer ; Battery Name ; Device-Chemistry ; Specification-Info ; Design-Capacity [mAh] ; Design-Voltage [mV] ; Battery Status ; Cycle Count ; SOC [%] ; Relativ SOC[%] ; Desired Voltage [mV]; Desired Current [mA]; Cell Voltage 1 [mV] ; Cell Voltage 2 [mV] ; Max_Error [%] ; Busvoltage[mV] ; Battery Temperature [°C] ; Charger Temperature [°C] ; Batterysystem ; Case ; PLace
009597;07.12.2020;04:14:28;Cycle         ;04.12.2018;FEY;;LION;49;14500;7200;192;3;98;98;8400;;4150;4151;1;13007;25.94;28.04;30,3;BCS1388054;4;1
009597;08.12.2020;16:19:56;Stop          ;04.12.2018;FEY;;LION;49;14500;7200;192;3;98;98;8400;;4147;4148;1;13007;28.04;29.64;31,9;BCS1388054;4;1
009597;12.01.2021;04:17:33;Charge to 90% ;04.12.2018;FEY;;LION;49;14500;7200;192;3;96;97;8400;;4131;4132;1;13019;23.34;22.64;23,6;BCS1388054;4;18
009597;12.01.2021;04:57:16;Stop          ;04.12.2018;FEY;;LION;49;14500;7200;192;3;90;90;8400;3000;4059;4060;1;13014;27.84;28.24;31,6;BCS1388054;4;18
009597;12.01.2021;05:21:49;Cycle         ;04.12.2018;FEY;;LION;49;14500;7200;192;3;90;90;8400;3000;4064;4065;1;13016;27.44;26.84;30,4;BCS1388054;4;18
009597;13.01.2021;08:19:19;Stop          ;04.12.2018;FEY;;LION;49;14500;7200;224;5;96;100;8400;;4154;4156;1;13016;27.04;26.84;30,7;BCS1388054;4;18
009597;22.02.2021;17:31:59;Normalcharge  ;04.12.2018;FEY;;LION;49;14500;7200;192;5;56;58;8400;3000;3715;3717;1;13004;26.54;26.64;31,6;BCS1388054;2;5
009597;22.02.2021;21:53:27;Stop          ;04.12.2018;FEY;;LION;49;14500;7200;224;5;97;100;8400;;4163;4163;1;13006;27.24;28.44;31,7;BCS1388054;2;5
009597;06.04.2021;08:39:03;Normalcharge  ;04.12.2018;FEY;;LION;49;14500;7200;224;5;95;99;8400;;4127;4127;1;12992;21.64;24.94;28,1;BCS1388054;4;11
009597;06.04.2021;08:39:53;Stop          ;04.12.2018;FEY;;LION;49;14500;7200;224;5;95;99;8400;;4127;4127;1;12991;21.64;25.04;28,4;BCS1388054;4;11
009597;08.04.2021;07:58:12;Normalcharge  ;04.12.2018;FEY;;LION;49;14500;7200;224;5;94;99;8400;;4127;4127;1;12998;25.54;24.64;26,3;BCS1388054;4;11
009597;08.04.2021;07:59:34;Stop          ;04.12.2018;FEY;;LION;49;14500;7200;224;5;94;99;8400;;4127;4127;1;12979;25.54;25.64;26,7;BCS1388054;4;11
009597;08.04.2021;10:36:07;Normalcharge  ;04.12.2018;FEY;;LION;49;14500;7200;224;5;94;99;8400;;4127;4127;1;12993;25.74;25.84;28,5;BCS1388054;4;11
009597;08.04.2021;10:37:03;Stop          ;04.12.2018;FEY;;LION;49;14500;7200;224;5;94;99;8400;;4127;4127;1;12971;25.74;26.04;29,0;BCS1388054;4;11
009597;18.04.2021;08:34:04;Normalcharge  ;04.12.2018;FEY;;LION;49;14500;7200;224;5;94;99;8400;;4123;4123;1;12996;26.44;26.64;27,9;BCS1388054;4;11
009597;18.04.2021;08:34:10;Stop          ;04.12.2018;FEY;;LION;49;14500;7200;224;5;94;99;8400;;4123;4123;1;12995;26.44;26.64;28,1;BCS1388054;4;11
009597;04.08.2021;07:24:46;Normalcharge  ;04.12.2018;FEY;;LION;49;14500;7200;192;5;92;96;8400;;4091;4091;1;12990;30.54;30.74;31,5;BCS1388054;4;11
009597;04.08.2021;07:25:30;Stop          ;04.12.2018;FEY;;LION;49;14500;7200;192;5;92;96;8400;;4091;4091;1;12968;30.54;30.94;31,7;BCS1388054;4;11
009597;22.08.2021;11:08:04;Normalcharge  ;04.12.2018;FEY;;LION;49;14500;7200;192;5;91;94;8400;3000;4080;4079;1;12991;22.84;29.94;32,1;BCS1388054;4;5
009597;22.08.2021;11:08:37;Stop          ;04.12.2018;FEY;;LION;49;14500;7200;128;5;91;94;8400;3000;4121;4104;1;12679;22.94;30.94;32,5;BCS1388054;4;5
009597;12.10.2021;12:15:20;Normalcharge  ;04.12.2018;FEY;;LION;49;14500;7200;192;5;84;87;8400;3000;3998;3998;1;12991;24.54;26.54;27,9;BCS1388054;1;9
009597;12.10.2021;12:15:34;Stop          ;04.12.2018;FEY;;LION;49;14500;7200;192;5;84;87;8400;3000;3997;3998;1;12977;24.54;27.04;27,9;BCS1388054;1;9
009597;14.10.2021;12:40:07;Normalcharge  ;04.12.2018;FEY;;LION;49;14500;7200;192;5;84;87;8400;3000;3998;3998;1;12995;25.24;26.64;27,9;BCS1388054;4;5
009597;14.10.2021;12:41:43;Stop          ;04.12.2018;FEY;;LION;49;14500;7200;128;5;84;87;8400;3000;4092;4048;1;12653;25.34;29.54;28,4;BCS1388054;4;5
009597;28.12.2021;09:01:25;Normalcharge  ;04.12.2018;FEY;;LION;49;14500;7200;192;5;79;82;8400;3000;3947;3947;1;13009;24.14;25.04;25,3;BCS1388054;3;13
009597;28.12.2021;09:02:24;Stop           ;04.12.2018;FEY;;LION;49;14500;7200;128;5;79;82;8400;3000;4040;3994;1;12566;24.14;27.54;25,8;BCS1388054;3;13
009597;07.02.2022;08:50:47;Normalcharge  ;04.12.2018;FEY;;LION;49;14500;7200;192;5;79;82;8400;3000;3936;3936;1;13007;22.44;21.44;25,0;BCS1388054;6;12
009597;13.02.2022;10:58:25;Normalcharge  ;04.12.2018;FEY;;LION;49;14500;7200;224;5;96;100;8400;;4138;4138;1;13019;23.04;22.54;26,1;BCS1388054;3;3
009597;13.02.2022;17:19:51;Stop           ;04.12.2018;FEY;;LION;49;14500;7200;224;5;96;100;8400;;4137;4137;1;13011;25.44;26.64;29,0;BCS1388054;3;3

File: 009612.txt
Serialnumber ; Date ; Time ; Action ; Date of Manufacture ; Manufacturer ; Battery Name ; Device-Chemistry ; Specification-Info ; Design-Capacity [mAh] ; Design-Voltage [mV] ; Battery Status ; Cycle Count ; SOC [%] ; Relativ SOC[%] ; Desired Voltage [mV]; Desired Current [mA]; Cell Voltage 1 [mV] ; Cell Voltage 2 [mV] ; Max_Error [%] ; Busvoltage[mV] ; Battery Temperature [°C] ; Charger Temperature [°C] ; Batterysystem ; Case ; PLace
009612;07.12.2020;04:14:25;Cycle          ;04.12.2018;FEY;;LION;49;14500;7200;224;3;96;99;8400;;4144;4143;1;13002;25.74;26.84;30,3;BCS1388054;3;4
009612;08.12.2020;16:19:50;Stop           ;04.12.2018;FEY;;LION;49;14500;7200;224;5;97;100;8400;;4152;4152;1;13002;27.84;28.44;31,9;BCS1388054;3;4
009612;12.01.2021;04:17:33;Charge to 90% ;04.12.2018;FEY;;LION;49;14500;7200;224;5;95;99;8400;;4132;4132;1;12999;23.04;23.64;23,6;BCS1388054;4;5
009612;12.01.2021;04:57:16;Stop          ;04.12.2018;FEY;;LION;49;14500;7200;192;5;85;90;8400;3000;3944;3995;1;12994;27.84;30.94;31,6;BCS1388054;4;5
009612;12.01.2021;05:21:49;Cycle         ;04.12.2018;FEY;;LION;49;14500;7200;192;5;85;90;8400;3000;4049;4050;1;12995;27.54;27.14;30,4;BCS1388054;4;5
009612;13.01.2021;08:19:19;Stop          ;04.12.2018;FEY;;LION;49;14500;7200;224;6;95;100;8400;;4154;4154;1;12996;27.04;27.34;30,7;BCS1388054;4;5
009612;21.02.2021;13:43:19;Normalcharge  ;04.12.2018;FEY;;LION;49;14500;7200;192;6;92;97;8400;;4113;4113;1;13016;23.54;25.04;27,5;BCS1388054;1;16
009612;22.02.2021;17:08:49;Stop          ;04.12.2018;FEY;;LION;49;14500;7200;192;6;92;97;8400;;4113;4112;1;13015;26.14;26.84;30,0;BCS1388054;1;16
009612;04.04.2021;11:49:55;Normalcharge  ;04.12.2018;FEY;;LION;49;14500;7200;192;7;50;52;8400;3000;3667;3667;1;13029;25.04;25.54;27,5;BCS1388054;7;7
009612;04.04.2021;11:51:17;Stop          ;04.12.2018;FEY;;LION;49;14500;7200;128;7;50;52;8400;3000;3750;3705;1;12750;25.14;28.54;28,4;BCS1388054;7;7
009612;05.04.2021;09:38:17;Charge to 60% ;04.12.2018;FEY;;LION;49;14500;7200;192;7;50;52;8400;3000;3669;3670;1;13002;24.94;25.14;26,4;BCS1388054;5;6
009612;05.04.2021;10:34:50;Charge to 60% ;04.12.2018;FEY;;LION;49;14500;7200;192;7;57;60;8400;3000;3740;3742;1;12907;27.54;27.54;32,4;BCS1388054;5;6
009612;05.04.2021;13:16:09;Stop          ;04.12.2018;FEY;;LION;49;14500;7200;192;7;57;60;8400;3000;3738;3740;1;12999;27.44;27.74;32,2;BCS1388054;5;6
009612;22.08.2021;11:37:21;Normalcharge  ;04.12.2018;FEY;;LION;49;14500;7200;192;7;52;54;8400;3000;3664;3665;1;13010;21.94;28.74;31,9;BCS1388054;5;2
009612;22.08.2021;11:38:04;Stop          ;04.12.2018;FEY;;LION;49;14500;7200;128;7;52;54;8400;3000;3733;3694;1;12769;22.04;30.64;32,0;BCS1388054;5;2

File: 009613.txt
Serialnumber ; Date ; Time ; Action ; Date of Manufacture ; Manufacturer ; Battery Name ; Device-Chemistry ; Specification-Info ; Design-Capacity [mAh] ; Design-Voltage [mV] ; Battery Status ; Cycle Count ; SOC [%] ; Relativ SOC[%] ; Desired Voltage [mV]; Desired Current [mA]; Cell Voltage 1 [mV] ; Cell Voltage 2 [mV] ; Max_Error [%] ; Busvoltage[mV] ; Battery Temperature [°C] ; Charger Temperature [°C] ; Batterysystem ; Case ; PLace
009613;07.12.2020;04:14:25;Cycle          ;04.12.2018;FEY;;LION;49;14500;7200;16576;4;98;99;;;4146;4145;1;12998;25.34;26.64;30,3;BCS1388054;3;6
009613;08.12.2020;16:19:50;Stop           ;04.12.2018;FEY;;LION;49;14500;7200;16576;4;98;100;;;4144;4142;1;12997;27.34;27.94;31,9;BCS1388054;3;6
009613;12.01.2021;04:17:40;Charge to 90% ;04.12.2018;FEY;;LION;49;14500;7200;16576;4;96;98;;;4129;4128;1;13017;22.74;24.24;23,6;BCS1388054;6;17
009613;12.01.2021;05:00:55;Stop          ;04.12.2018;FEY;;LION;49;14500;7200;192;4;89;90;8400;3000;4051;4050;1;13012;26.64;30.04;31,2;BCS1388054;6;17
009613;12.01.2021;05:21:57;Cycle         ;04.12.2018;FEY;;LION;49;14500;7200;192;4;89;90;8400;3000;4056;4055;1;13013;26.54;28.84;30,4;BCS1388054;6;17
009613;13.01.2021;08:31:18;Stop          ;04.12.2018;FEY;;LION;49;14500;7200;224;5;98;100;8400;;4155;4156;1;13011;26.44;28.84;31,1;BCS1388054;6;17
009613;21.02.2021;13:43:49;Normalcharge  ;04.12.2018;FEY;;LION;49;14500;7200;224;5;96;99;8400;;4131;4132;1;12998;22.54;23.64;27,7;BCS1388054;3;8
009613;21.02.2021;20:44:52;Stop           ;04.12.2018;FEY;;LION;49;14500;7200;224;5;96;99;8400;;4131;4132;1;12993;26.54;28.44;31,2;BCS1388054;3;8
009613;06.04.2021;08:39:03;Normalcharge  ;04.12.2018;FEY;;LION;49;14500;7200;192;5;95;98;8400;;4116;4116;1;13012;21.54;25.34;28,1;BCS1388054;4;1
009613;06.04.2021;08:39:53;Stop          ;04.12.2018;FEY;;LION;49;14500;7200;192;5;95;98;8400;;4116;4116;1;13009;21.64;25.74;28,4;BCS1388054;4;1
009613;08.04.2021;07:58:12;Normalcharge  ;04.12.2018;FEY;;LION;49;14500;7200;192;5;95;98;8400;;4115;4115;1;13011;24.84;21.54;26,3;BCS1388054;4;1
009613;08.04.2021;07:59:34;Stop          ;04.12.2018;FEY;;LION;49;14500;7200;192;5;95;98;8400;;4115;4115;1;12989;24.84;26.24;26,7;BCS1388054;4;1
009613;08.04.2021;10:36:07;Normalcharge  ;04.12.2018;FEY;;LION;49;14500;7200;192;5;95;98;8400;;4115;4115;1;13010;25.14;26.34;28,5;BCS1388054;4;1
009613;08.04.2021;10:37:03;Stop          ;04.12.2018;FEY;;LION;49;14500;7200;192;5;95;98;8400;;4115;4115;1;12984;25.14;26.84;29,0;BCS1388054;4;1
009613;18.04.2021;08:34:04;Normalcharge  ;04.12.2018;FEY;;LION;49;14500;7200;192;5;95;97;8400;;4112;4112;1;13011;25.74;27.14;27,9;BCS1388054;4;1
009613;18.04.2021;08:34:10;Stop          ;04.12.2018;FEY;;LION;49;14500;7200;192;5;95;97;8400;;4112;4112;1;13009;25.74;27.14;28,1;BCS1388054;4;1
009613;04.08.2021;07:24:46;Normalcharge  ;04.12.2018;FEY;;LION;49;14500;7200;192;5;94;96;8400;;4084;4084;1;13007;29.94;30.94;31,5;BCS1388054;4;1
009613;04.08.2021;07:25:30;Stop          ;04.12.2018;FEY;;LION;49;14500;7200;192;5;94;96;8400;;4084;4084;1;12981;29.94;31.44;31,7;BCS1388054;4;1
009613;22.08.2021;11:37:17;Normalcharge  ;04.12.2018;FEY;;LION;49;14500;7200;192;5;92;94;8400;3000;4079;4080;1;13005;22.44;29.24;31,9;BCS1388054;6;3
009613;22.08.2021;11:37:57;Stop          ;04.12.2018;FEY;;LION;49;14500;7200;128;5;92;94;8400;3000;4111;4098;1;12881;22.54;30.64;32,0;BCS1388054;6;3
009613;14.10.2021;12:39:51;Normalcharge  ;04.12.2018;FEY;;LION;49;14500;7200;192;6;68;71;8400;3000;3856;3856;1;12992;24.24;26.44;27,9;BCS1388054;1;5
009613;14.10.2021;12:41:14;Stop          ;04.12.2018;FEY;;LION;49;14500;7200;128;6;69;71;8400;3000;3948;3900;1;12471;24.34;29.24;28,2;BCS1388054;1;5
009613;07.02.2022;08:51:51;Normalcharge  ;04.12.2018;FEY;;LION;49;14500;7200;192;6;69;71;8400;3000;3831;3831;1;13010;22.14;23.64;25,6;BCS1388054;1;6
009613;07.02.2022;13:16:30;Stop          ;04.12.2018;FEY;;LION;49;14500;7200;224;6;97;100;8400;;4152;4151;1;13007;24.94;27.24;31,2;BCS1388054;1;6
009613;14.03.2022;12:14:26;Normalcharge  ;04.12.2018;FEY;;LION;49;14500;7200;224;6;95;99;8400;;4129;4128;1;13017;23.64;24.34;27,5;BCS1388054;5;17
009613;14.03.2022;12:18:30;Stop          ;04.12.2018;FEY;;LION;49;14500;7200;224;6;95;99;8400;;4128;4128;1;13015;23.74;25.34;29,5;BCS1388054;5;17