Folder: Battery_sort_V2/reader/Batterieverzeichnis_new (part 12)

File: 009743.txt
Serialnumber ; Date ; Time ; Action ; Date of Manufacture ; Manufacturer ; Battery Name ; Device-Chemistry ; Specification-Info ; Design-Capacity [mAh] ; Design-Voltage [mV] ; Battery Status ; Cycle Count ; SOC [%] ; Relativ SOC[%] ; Desired Voltage [mV]; Desired Current [mA]; Cell Voltage 1 [mV] ; Cell Voltage 2 [mV] ; Max_Error [%] ; Busvoltage[mV] ; Battery Temperature [°C] ; Charger Temperature [°C] ; Batterysystem ; Case ; PLace
009743;30.11.2020;09:42:55;Stop          ;04.12.2018;FEY;;LION;49;14500;7200;224;4;97;100;8400;;4154;4153;1;13016;27.44;27.64;31,7;BCS1388054;7;11
009743;07.02.2021;08:47:00;Normalcharge  ;04.12.2018;FEY;;LION;49;14500;7200;192;4;90;93;8400;3000;4064;4063;1;13009;23.44;25.34;29,2;BCS1388054;4;8
009743;07.02.2021;11:52:20;Stop          ;04.12.2018;FEY;;LION;49;14500;7200;224;4;98;100;8400;;4150;4149;1;13009;25.94;26.64;29,7;BCS1388054;4;8
009743;03.03.2021;08:17:35;Normalcharge  ;04.12.2018;FEY;;LION;49;14500;7200;192;5;73;76;8400;3000;3895;3893;1;13010;23.04;23.64;23,6;BCS1388054;5;12
009743;03.03.2021;11:26:36;Stop          ;04.12.2018;FEY;;LION;49;14500;7200;224;5;97;100;8400;;4158;4155;1;13003;28.04;28.44;31,5;BCS1388054;5;12
009743;04.04.2021;11:49:55;Normalcharge  ;04.12.2018;FEY;;LION;49;14500;7200;192;5;52;54;8400;3000;3689;3687;1;13030;24.94;25.34;27,5;BCS1388054;7;4
009743;04.04.2021;11:51:17;Stop          ;04.12.2018;FEY;;LION;49;14500;7200;128;5;52;54;8400;3000;3778;3728;1;12749;24.94;28.74;28,4;BCS1388054;7;4
009743;05.04.2021;09:38:11;Charge to 60% ;04.12.2018;FEY;;LION;49;14500;7200;192;5;52;54;8400;3000;3692;3689;1;13005;24.84;25.64;26,3;BCS1388054;4;6
009743;05.04.2021;10:13:52;Stop          ;04.12.2018;FEY;;LION;49;14500;7200;192;5;57;60;8400;3000;3762;3755;1;13002;27.14;28.04;32,1;BCS1388054;4;6
009743;22.08.2021;11:37:21;Normalcharge  ;04.12.2018;FEY;;LION;49;14500;7200;192;5;51;53;8400;3000;3661;3659;1;13014;22.24;28.64;31,9;BCS1388054;5;18
009743;22.08.2021;11:38:04;Stop          ;04.12.2018;FEY;;LION;49;14500;7200;128;5;51;53;8400;3000;3728;3686;1;12759;22.44;30.24;32,0;BCS1388054;5;18
009743;25.08.2021;08:15:02;Charge to 60% ;04.12.2018;FEY;;LION;49;14500;7200;192;5;51;53;8400;3000;3663;3661;1;13011;30.24;31.74;33,2;BCS1388054;5;18
009743;25.08.2021;13:03:31;Stop          ;04.12.2018;FEY;;LION;49;14500;7200;192;5;58;60;8400;3000;3725;3722;1;13009;32.44;34.24;36,6;BCS1388054;5;18
009743;01.11.2021;10:18:16;Normalcharge  ;04.12.2018;FEY;;LION;49;14500;7200;192;5;54;55;8400;3000;3698;3695;1;13006;25.94;26.44;28,2;BCS1388054;3;15
009743;01.11.2021;10:18:56;Stop           ;04.12.2018;FEY;;LION;49;14500;7200;128;5;54;55;8400;3000;3775;3729;1;12606;25.94;28.24;28,2;BCS1388054;3;15
009743;01.11.2021;10:27:50;Normalcharge  ;04.12.2018;FEY;;LION;49;14500;7200;192;5;54;55;8400;3000;3699;3697;1;13011;25.94;26.64;27,8;BCS1388054;3;15
009743;01.11.2021;10:29:05;Stop           ;04.12.2018;FEY;;LION;49;14500;7200;128;5;54;55;8400;3000;3789;3739;1;12573;25.94;29.94;28,5;BCS1388054;3;15
009743;01.11.2021;10:32:24;Ladung auf 60% ;04.12.2018;FEY;;LION;49;14500;7200;192;5;54;55;8400;3000;3702;3699;1;13005;26.04;27.74;29,7;BCS1388054;3;15
009743;01.11.2021;15:19:46;Stop           ;04.12.2018;FEY;;LION;49;14500;7200;192;5;58;60;8400;3000;3750;3746;1;13006;28.74;30.54;32,7;BCS1388054;3;15
009743;07.02.2022;08:51:51;Normalcharge  ;04.12.2018;FEY;;LION;49;14500;7200;192;5;55;57;8400;3000;3710;3707;1;12994;22.44;22.94;25,6;BCS1388054;1;4
009743;07.02.2022;13:16:30;Stop          ;04.12.2018;FEY;;LION;49;14500;7200;224;5;97;100;8400;;4163;4164;1;12990;25.74;26.94;31,2;BCS1388054;1;4
009743;14.03.2022;10:33:46;Normalcharge  ;04.12.2018;FEY;;LION;49;14500;7200;224;5;96;99;8400;;4129;4129;1;13015;24.04;25.34;25,1;BCS1388054;6;15
009743;14.03.2022;10:38:06;Stop          ;04.12.2018;FEY;;LION;49;14500;7200;224;5;96;99;8400;;4129;4128;1;12671;24.04;27.34;28,1;BCS1388054;6;15

File: 009745.txt
Serialnumber ; Date ; Time ; Action ; Date of Manufacture ; Manufacturer ; Battery Name ; Device-Chemistry ; Specification-Info ; Design-Capacity [mAh] ; Design-Voltage [mV] ; Battery Status ; Cycle Count ; SOC [%] ; Relativ SOC[%] ; Desired Voltage [mV]; Desired Current [mA]; Cell Voltage 1 [mV] ; Cell Voltage 2 [mV] ; Max_Error [%] ; Busvoltage[mV] ; Battery Temperature [°C] ; Charger Temperature [°C] ; Batterysystem ; Case ; PLace
009745;07.12.2020;04:14:28;Cycle         ;04.12.2018;FEY;;LION;49;14500;7200;192;2;97;98;8400;;4135;4136;1;12990;25.54;26.74;30,3;BCS1388054;4;11
009745;08.12.2020;16:19:56;Stop          ;04.12.2018;FEY;;LION;49;14500;7200;192;2;97;98;8400;;4133;4134;1;12989;27.64;28.04;31,9;BCS1388054;4;11
009745;12.01.2021;04:17:47;Charge to 90% ;04.12.2018;FEY;;LION;49;14500;7200;192;2;96;97;8400;;4121;4121;1;13025;22.94;23.54;23,8;BCS1388054;7;7
009745;12.01.2021;04:57:19;Stop          ;04.12.2018;FEY;;LION;49;14500;7200;192;2;89;90;8400;3000;4058;4057;1;13019;26.74;28.94;31,5;BCS1388054;7;7
009745;12.01.2021;05:22:01;Cycle         ;04.12.2018;FEY;;LION;49;14500;7200;192;2;89;90;8400;3000;4062;4061;1;13020;26.74;27.74;30,4;BCS1388054;7;7
009745;13.01.2021;08:19:29;Stop          ;04.12.2018;FEY;;LION;49;14500;7200;224;3;97;100;8400;;4156;4156;1;13018;26.54;27.74;30,7;BCS1388054;7;7
009745;21.02.2021;13:45:29;Normalcharge  ;04.12.2018;FEY;;LION;49;14500;7200;192;4;46;47;8400;3000;3639;3638;1;13020;22.54;23.84;27,8;BCS1388054;6;15
009745;06.04.2021;08:38:46;Normalcharge  ;04.12.2018;FEY;;LION;49;14500;7200;224;4;97;99;8400;;4129;4130;1;13010;20.34;25.64;28,1;BCS1388054;2;4
009745;06.04.2021;08:39:36;Stop          ;04.12.2018;FEY;;LION;49;14500;7200;224;4;97;99;8400;;4129;4130;1;13009;20.44;26.04;28,2;BCS1388054;2;4
009745;08.04.2021;07:57:57;Normalcharge  ;04.12.2018;FEY;;LION;49;14500;7200;224;4;97;99;8400;;4129;4130;1;13010;25.14;25.74;26,3;BCS1388054;2;4
009745;08.04.2021;07:59:45;Stop          ;04.12.2018;FEY;;LION;49;14500;7200;224;4;97;99;8400;;4129;4130;1;13007;25.14;26.74;26,8;BCS1388054;2;4
009745;08.04.2021;10:35:00;Normalcharge  ;04.12.2018;FEY;;LION;49;14500;7200;224;4;97;99;8400;;4129;4130;1;13010;25.54;26.14;28,1;BCS1388054;2;4
009745;08.04.2021;10:36:53;Stop          ;04.12.2018;FEY;;LION;49;14500;7200;224;4;97;99;8400;;4129;4130;1;13007;25.54;27.24;28,9;BCS1388054;2;4
009745;18.04.2021;08:33:36;Normalcharge  ;04.12.2018;FEY;;LION;49;14500;7200;192;4;96;98;8400;;4125;4126;1;13007;26.04;27.24;27,7;BCS1388054;2;4
009745;18.04.2021;08:33:44;Stop          ;04.12.2018;FEY;;LION;49;14500;7200;192;4;96;98;8400;;4125;4126;1;13006;26.04;27.24;27,8;BCS1388054;2;4
009745;04.08.2021;07:24:55;Normalcharge  ;04.12.2018;FEY;;LION;49;14500;7200;192;4;94;96;8400;;4093;4093;1;12999;30.34;31.54;31,5;BCS1388054;2;4
009745;04.08.2021;07:25:47;Stop          ;04.12.2018;FEY;;LION;49;14500;7200;192;4;94;96;8400;;4092;4093;1;12997;30.34;32.04;31,9;BCS1388054;2;4
009745;22.08.2021;11:08:09;Normalcharge  ;04.12.2018;FEY;;LION;49;14500;7200;192;4;90;92;8400;3000;4056;4056;1;13012;22.24;28.54;32,1;BCS1388054;5;17
009745;22.08.2021;11:08:42;Stop          ;04.12.2018;FEY;;LION;49;14500;7200;128;4;90;92;8400;3000;4081;4069;1;12846;22.24;29.84;32,5;BCS1388054;5;17
009745;01.11.2021;09:52:05;Normalcharge  ;04.12.2018;FEY;;LION;49;14500;7200;192;4;88;90;8400;3000;4032;4033;1;12993;25.24;25.74;26,3;BCS1388054;4;2
009745;01.11.2021;09:53:34;Stop          ;04.12.2018;FEY;;LION;49;14500;7200;128;4;88;90;8400;3000;4111;4077;1;12621;25.24;29.44;27,1;BCS1388054;4;2
009745;01.11.2021;10:02:14;Normalcharge  ;04.12.2018;FEY;;LION;49;14500;7200;192;4;88;90;8400;3000;4035;4035;1;12991;25.34;28.74;29,5;BCS1388054;4;2
009745;01.11.2021;10:03:16;Stop          ;04.12.2018;FEY;;LION;49;14500;7200;128;4;88;90;8400;3000;4108;4075;1;12592;25.34;30.84;29,3;BCS1388054;4;2
009745;28.12.2021;09:01:25;Normalcharge  ;04.12.2018;FEY;;LION;49;14500;7200;192;4;82;84;8400;3000;3966;3966;1;13006;23.44;23.04;25,3;BCS1388054;3;11
009745;28.12.2021;09:02:24;Stop           ;04.12.2018;FEY;;LION;49;14500;7200;128;4;82;84;8400;3000;4064;4016;1;12551;23.44;25.24;25,8;BCS1388054;3;11
009745;14.03.2022;12:14:21;Normalcharge  ;04.12.2018;FEY;;LION;49;14500;7200;192;5;55;56;8400;3000;3710;3710;1;13004;23.64;25.34;27,5;BCS1388054;6;9
009745;14.03.2022;12:18:18;Stop          ;04.12.2018;FEY;;LION;49;14500;7200;128;5;56;57;8400;3000;3815;3768;1;12822;23.94;30.04;29,3;BCS1388054;6;9
009745;17.05.2022;08:54:30;Normalcharge  ;04.12.2018;FEY;;LION;49;14500;7200;192;5;55;56;8400;3000;3702;3702;1;12996;28.24;30.34;31,0;BCS1388054;6;14
009745;17.05.2022;13:41:44;Stop          ;04.12.2018;FEY;;LION;49;14500;7200;224;5;99;100;8400;;4160;4161;1;12922;33.24;35.64;33,9;BCS1388054;6;14

File: 009746.txt
Serialnumber ; Date ; Time ; Action ; Date of Manufacture ; Manufacturer ; Battery Name ; Device-Chemistry ; Specification-Info ; Design-Capacity [mAh] ; Design-Voltage [mV] ; Battery Status ; Cycle Count ; SOC [%] ; Relativ SOC[%] ; Desired Voltage [mV]; Desired Current [mA]; Cell Voltage 1 [mV] ; Cell Voltage 2 [mV] ; Max_Error [%] ; Busvoltage[mV] ; Battery Temperature [°C] ; Charger Temperature [°C] ; Batterysystem ; Case ; PLace
009746;07.12.2020;04:14:17;Cycle         ;04.12.2018;FEY;;LION;49;14500;7200;224;3;100;99;8400;;4149;4148;1;12999;25.54;26.64;30,3;BCS1388054;1;10
009746;08.12.2020;16:19:38;Stop          ;04.12.2018;FEY;;LION;49;14500;7200;224;4;98;100;8400;;4152;4153;1;12997;27.24;27.84;31,9;BCS1388054;1;10
009746;03.03.2021;08:17:29;Normalcharge  ;04.12.2018;FEY;;LION;49;14500;7200;192;4;85;88;8400;3000;4014;4015;1;12999;23.04;23.34;23,5;BCS1388054;4;11
009746;03.03.2021;10:32:46;Stop          ;04.12.2018;FEY;;LION;49;14500;7200;224;4;98;100;8400;;4157;4159;1;12994;27.94;28.04;32,0;BCS1388054;4;11
009746;04.04.2021;11:50:10;Normalcharge  ;04.12.2018;FEY;;LION;49;14500;7200;224;4;96;99;8400;;4133;4134;1;13009;24.84;26.74;27,8;BCS1388054;5;2
009746;04.04.2021;11:51:30;Stop          ;04.12.2018;FEY;;LION;49;14500;7200;224;4;96;99;8400;;4134;4135;1;12693;24.84;27.54;28,5;BCS1388054;5;2
009746;22.08.2021;11:37:25;Normalcharge  ;04.12.2018;FEY;;LION;49;14500;7200;192;4;91;93;8400;3000;4063;4064;1;12996;21.14;27.84;31,9;BCS1388054;4;14
009746;22.08.2021;11:38:13;Stop          ;04.12.2018;FEY;;LION;49;14500;7200;128;4;91;93;8400;3000;4118;4096;1;12628;21.34;29.94;32,1;BCS1388054;4;14
009746;14.10.2021;12:40:18;Normalcharge  ;04.12.2018;FEY;;LION;49;14500;7200;192;5;69;71;8400;3000;3841;3842;1;12999;23.24;25.74;28,1;BCS1388054;6;12
009746;14.10.2021;12:41:59;Stop          ;04.12.2018;FEY;;LION;49;14500;7200;128;5;69;71;8400;3000;3937;3891;1;12625;23.44;28.04;28,5;BCS1388054;6;12
009746;07.02.2022;08:51:46;Normalcharge  ;04.12.2018;FEY;;LION;49;14500;7200;192;5;69;71;8400;3000;3814;3815;1;13016;22.34;23.24;25,6;BCS1388054;2;9
009746;07.02.2022;13:15:56;Stop          ;04.12.2018;FEY;;LION;49;14500;7200;224;5;98;100;8400;;4155;4156;1;13011;25.94;27.14;31,1;BCS1388054;2;9

File: 009749.txt
Serialnumber ; Date ; Time ; Action ; Date of Manufacture ; Manufacturer ; Battery Name ; Device-Chemistry ; Specification-Info ; Design-Capacity [mAh] ; Design-Voltage [mV] ; Battery Status ; Cycle Count ; SOC [%] ; Relativ SOC[%] ; Desired Voltage [mV]; Desired Current [mA]; Cell Voltage 1 [mV] ; Cell Voltage 2 [mV] ; Max_Error [%] ; Busvoltage[mV] ; Battery Temperature [°C] ; Charger Temperature [°C] ; Batterysystem ; Case ; PLace
009749;07.02.2021;08:47:00;Normalcharge  ;04.12.2018;FEY;;LION;49;14500;7200;192;5;90;93;8400;3000;4063;4062;1;13004;23.54;26.44;29,2;BCS1388054;4;7
009749;07.02.2021;11:52:20;Stop          ;04.12.2018;FEY;;LION;49;14500;7200;224;5;98;100;8400;;4150;4147;1;13004;26.14;27.74;29,7;BCS1388054;4;7
009749;03.03.2021;08:17:17;Normalcharge  ;04.12.2018;FEY;;LION;49;14500;7200;192;5;91;94;8400;3000;4082;4080;1;13009;23.24;23.74;23,5;BCS1388054;2;17
009749;04.03.2021;07:53:46;Stop          ;04.12.2018;FEY;;LION;49;14500;7200;224;5;97;100;8400;;4145;4142;1;13001;26.34;28.24;31,6;BCS1388054;2;17
009749;04.04.2021;11:49:55;Normalcharge  ;04.12.2018;FEY;;LION;49;14500;7200;192;5;53;55;8400;3000;3693;3690;1;13028;24.84;24.84;27,5;BCS1388054;7;6
009749;04.04.2021;11:51:17;Stop          ;04.12.2018;FEY;;LION;49;14500;7200;128;5;53;55;8400;3000;3784;3731;1;12751;24.94;27.14;28,4;BCS1388054;7;6
009749;05.04.2021;09:38:00;Ladung auf 60% ;04.12.2018;FEY;;LION;49;14500;7200;192;5;53;55;8400;3000;3695;3692;1;12996;25.04;25.34;26,3;BCS1388054;3;6
009749;05.04.2021;10:06:07;Stop           ;04.12.2018;FEY;;LION;49;14500;7200;192;5;57;60;8400;3000;3756;3751;1;12994;27.04;27.54;31,4;BCS1388054;3;6
009749;22.08.2021;11:08:13;Normalcharge  ;04.12.2018;FEY;;LION;49;14500;7200;192;5;54;56;8400;3000;3701;3698;1;12999;29.94;30.34;32,2;BCS1388054;6;9
009749;22.08.2021;11:08:46;Stop          ;04.12.2018;FEY;;LION;49;14500;7200;128;5;54;56;8400;3000;3731;3711;1;12800;29.94;31.54;32,5;BCS1388054;6;9
009749;25.08.2021;08:13:04;Normalcharge  ;04.12.2018;FEY;;LION;49;14500;7200;192;5;54;56;8400;3000;3700;3697;1;13000;30.54;31.34;32,4;BCS1388054;7;9
009749;25.08.2021;08:13:16;Stop          ;04.12.2018;FEY;;LION;49;14500;7200;192;5;54;56;8400;3000;3700;3697;1;12991;30.54;31.64;32,5;BCS1388054;7;9
009749;25.08.2021;08:14:41;Charge to 60% ;04.12.2018;FEY;;LION;49;14500;7200;192;5;54;56;8400;3000;3700;3698;1;13000;30.54;31.74;33,0;BCS1388054;7;9
009749;25.08.2021;08:37:46;Stop          ;04.12.2018;FEY;;LION;49;14500;7200;192;5;57;60;8400;3000;3753;3749;1;12740;32.04;34.84;36,1;BCS1388054;7;9
009749;25.08.2021;08:38:03;Charge to 60% ;04.12.2018;FEY;;LION;49;14500;7200;192;5;57;60;8400;3000;3753;3749;1;12998;32.04;34.74;36,1;BCS1388054;7;9
009749;25.08.2021;13:26:36;Stop          ;04.12.2018;FEY;;LION;49;14500;7200;192;5;57;60;8400;3000;3748;3744;1;13000;32.84;33.84;36,4;BCS1388054;7;9
009749;01.11.2021;09:51:55;Normalcharge  ;04.12.2018;FEY;;LION;49;14500;7200;192;5;55;57;8400;3000;3717;3714;1;13008;25.84;25.34;26,3;BCS1388054;6;4
009749;01.11.2021;09:53:45;Stop          ;04.12.2018;FEY;;LION;49;14500;7200;128;5;55;57;8400;3000;3816;3759;1;12630;25.94;29.64;27,3;BCS1388054;6;4
009749;01.11.2021;10:02:24;Normalcharge  ;04.12.2018;FEY;;LION;49;14500;7200;192;5;55;57;8400;3000;3722;3719;1;12999;26.04;27.34;29,5;BCS1388054;6;4
009749;01.11.2021;10:03:07;Stop          ;04.12.2018;FEY;;LION;49;14500;7200;128;5;55;58;8400;3000;3810;3758;1;12630;26.04;28.94;29,3;BCS1388054;6;4
009749;01.11.2021;10:27:30;Normalcharge  ;04.12.2018;FEY;;LION;49;14500;7200;192;5;55;58;8400;3000;3723;3720;1;13004;26.34;26.04;27,8;BCS1388054;6;4
009749;01.11.2021;10:29:18;Stop          ;04.12.2018;FEY;;LION;49;14500;7200;128;5;56;58;8400;3000;3821;3765;1;12631;26.44;30.34;28,6;BCS1388054;6;4
009749;01.11.2021;14:25:59;Stop          ;04.12.2018;FEY;;LION;49;14500;7200;192;5;57;60;8400;3000;3751;3747;1;13000;28.24;28.94;32,6;BCS1388054;6;4
009749;09.02.2022;08:16:56;Normalcharge  ;04.12.2018;FEY;;LION;49;14500;7200;192;5;55;57;8400;3000;3711;3709;1;13008;22.34;23.24;23,1;BCS1388054;2;2
009749;09.02.2022;12:43:52;Stop          ;04.12.2018;FEY;;LION;49;14500;7200;224;5;97;100;8400;;4160;4159;1;13002;26.44;28.04;29,9;BCS1388054;2;2
009749;14.03.2022;12:14:30;Normalcharge  ;04.12.2018;FEY;;LION;49;14500;7200;224;5;95;99;8400;;4130;4129;1;13010;24.54;25.34;27,5;BCS1388054;4;12
009749;14.03.2022;12:18:42;Stop          ;04.12.2018;FEY;;LION;49;14500;7200;224;5;95;99;8400;;4130;4128;1;12829;24.54;25.64;29,5;BCS1388054;4;12
009749;29.03.2022;08:21:05;Normalcharge  ;04.12.2018;FEY;;LION;49;14500;7200;192;6;94;97;8400;;4104;4103;1;13011;24.84;26.04;25,8;BCS1388054;2;5
009749;29.03.2022;08:21:45;Stop          ;04.12.2018;FEY;;LION;49;14500;7200;192;6;94;97;8400;;4104;4102;1;12742;24.84;26.34;26,0;BCS1388054;2;5
009749;29.03.2022;08:22:05;Normalcharge  ;04.12.2018;FEY;;LION;49;14500;7200;192;6;94;97;8400;;4104;4103;1;13010;24.84;26.44;26,1;BCS1388054;2;5
009749;29.03.2022;08:22:43;Stop          ;04.12.2018;FEY;;LION;49;14500;7200;192;6;94;97;8400;;4103;4102;1;12772;24.84;26.64;26,6;BCS1388054;2;5

File: 009750.txt
Serialnumber ; Date ; Time ; Action ; Date of Manufacture ; Manufacturer ; Battery Name ; Device-Chemistry ; Specification-Info ; Design-Capacity [mAh] ; Design-Voltage [mV] ; Battery Status ; Cycle Count ; SOC [%] ; Relativ SOC[%] ; Desired Voltage [mV]; Desired Current [mA]; Cell Voltage 1 [mV] ; Cell Voltage 2 [mV] ; Max_Error [%] ; Busvoltage[mV] ; Battery Temperature [°C] ; Charger Temperature [°C] ; Batterysystem ; Case ; PLace
009750;07.12.2020;04:14:40;Cycle         ;04.12.2018;FEY;;LION;49;14500;7200;192;2;95;97;8400;;4125;4129;1;13020;25.64;27.54;30,3;BCS1388054;7;3
009750;08.12.2020;16:20:20;Stop          ;04.12.2018;FEY;;LION;49;14500;7200;192;2;95;98;8400;;4124;4127;1;13021;27.64;28.94;31,9;BCS1388054;7;3
009750;07.02.2021;08:47:07;Normalcharge  ;04.12.2018;FEY;;LION;49;14500;7200;192;3;72;74;8400;3000;3887;3889;1;12998;23.64;26.44;29,2;BCS1388054;5;7
009750;07.02.2021;11:50:11;Stop          ;04.12.2018;FEY;;LION;49;14500;7200;224;3;98;100;8400;;4163;4168;1;12997;26.24;28.44;30,0;BCS1388054;5;7
009750;03.03.2021;08:17:35;Normalcharge  ;04.12.2018;FEY;;LION;49;14500;7200;192;3;74;77;8400;3000;3912;3914;1;13015;23.14;23.44;23,6;BCS1388054;5;9
009750;03.03.2021;11:26:36;Stop          ;04.12.2018;FEY;;LION;49;14500;7200;224;3;97;100;8400;;4158;4161;1;13010;28.94;29.44;31,5;BCS1388054;5;9
009750;06.04.2021;08:38:50;Normalcharge  ;04.12.2018;FEY;;LION;49;14500;7200;224;3;96;99;8400;;4134;4136;1;13006;20.64;24.14;28,1;BCS1388054;3;16
009750;06.04.2021;08:39:42;Stop           ;04.12.2018;FEY;;LION;49;14500;7200;224;3;96;99;8400;;4134;4136;1;13005;20.74;24.34;28,2;BCS1388054;3;16
009750;08.04.2021;07:58:01;Normalcharge  ;04.12.2018;FEY;;LION;49;14500;7200;224;3;96;99;8400;;4134;4136;1;13006;25.24;24.44;26,4;BCS1388054;3;16
009750;08.04.2021;07:59:40;Stop           ;04.12.2018;FEY;;LION;49;14500;7200;224;3;96;99;8400;;4134;4136;1;13004;25.24;25.14;26,8;BCS1388054;3;16
009750;08.04.2021;10:35:05;Normalcharge  ;04.12.2018;FEY;;LION;49;14500;7200;224;3;96;99;8400;;4133;4136;1;13007;25.54;24.74;28,1;BCS1388054;3;16
009750;08.04.2021;10:36:56;Stop           ;04.12.2018;FEY;;LION;49;14500;7200;224;3;96;99;8400;;4134;4136;1;13003;25.54;25.54;29,0;BCS1388054;3;16
009750;18.04.2021;08:33:50;Normalcharge  ;04.12.2018;FEY;;LION;49;14500;7200;224;3;96;99;8400;;4129;4132;1;13008;26.14;25.84;27,8;BCS1388054;3;16
009750;18.04.2021;08:33:58;Stop           ;04.12.2018;FEY;;LION;49;14500;7200;224;3;96;99;8400;;4129;4132;1;13008;26.14;25.94;27,9;BCS1388054;3;16
009750;04.08.2021;07:24:50;Normalcharge  ;04.12.2018;FEY;;LION;49;14500;7200;192;3;93;96;8400;;4096;4098;1;12998;30.44;30.04;31,6;BCS1388054;3;16
009750;04.08.2021;07:25:37;Stop           ;04.12.2018;FEY;;LION;49;14500;7200;192;3;93;96;8400;;4096;4098;1;12998;30.44;30.34;31,7;BCS1388054;3;16
009750;22.08.2021;11:08:08;Normalcharge  ;04.12.2018;FEY;;LION;49;14500;7200;2768;4;;;8400;3000;3112;3111;1;12997;22.84;28.54;32,1;BCS1388054;5;10
009750;22.08.2021;11:08:41;Stop          ;04.12.2018;FEY;;LION;49;14500;7200;144;4;;;8400;3000;3115;3115;1;12853;22.94;29.34;32,5;BCS1388054;5;10
009750;25.08.2021;08:13:04;Normalcharge  ;04.12.2018;FEY;;LION;49;14500;7200;720;4;;;8400;3000;3118;3116;1;13021;30.34;31.74;32,4;BCS1388054;7;5
009750;25.08.2021;08:13:16;Stop          ;04.12.2018;FEY;;LION;49;14500;7200;720;4;;;8400;3000;3118;3116;1;13010;30.34;31.94;32,5;BCS1388054;7;5
009750;25.08.2021;08:14:41;Charge to 60% ;04.12.2018;FEY;;LION;49;14500;7200;720;4;;;8400;3000;3118;3116;1;13026;30.34;31.94;33,0;BCS1388054;7;5
009750;25.08.2021;08:37:46;Stop          ;04.12.2018;FEY;;LION;49;14500;7200;144;4;4;4;8400;3000;3469;3420;1;12751;31.74;36.94;36,1;BCS1388054;7;5
009750;25.08.2021;08:38:03;Charge to 60% ;04.12.2018;FEY;;LION;49;14500;7200;144;4;4;4;8400;3000;3375;3377;1;13024;31.74;36.14;36,1;BCS1388054;7;5
009750;25.08.2021;13:26:36;Stop          ;04.12.2018;FEY;;LION;49;14500;7200;192;4;56;60;8400;3000;3768;3767;1;13024;33.04;33.74;36,4;BCS1388054;7;5
009750;01.11.2021;09:51:56;Normalcharge  ;04.12.2018;FEY;;LION;49;14500;7200;192;4;55;57;8400;3000;3718;3719;1;13004;25.84;26.24;26,3;BCS1388054;6;9
009750;01.11.2021;09:53:46;Stop          ;04.12.2018;FEY;;LION;49;14500;7200;128;4;55;58;8400;3000;3813;3765;1;12620;25.94;29.94;27,3;BCS1388054;6;9
009750;01.11.2021;10:02:24;Normalcharge  ;04.12.2018;FEY;;LION;49;14500;7200;192;4;55;58;8400;3000;3724;3724;1;12997;26.04;28.24;29,5;BCS1388054;6;9
009750;01.11.2021;10:03:07;Stop          ;04.12.2018;FEY;;LION;49;14500;7200;128;4;55;58;8400;3000;3810;3762;1;12621;26.04;29.64;29,3;BCS1388054;6;9
009750;01.11.2021;10:27:30;Normalcharge  ;04.12.2018;FEY;;LION;49;14500;7200;192;4;55;58;8400;3000;3725;3725;1;13000;26.34;26.94;27,8;BCS1388054;6;9
009750;01.11.2021;10:29:18;Stop          ;04.12.2018;FEY;;LION;49;14500;7200;128;4;55;58;8400;3000;3822;3770;1;12623;26.34;30.74;28,6;BCS1388054;6;9
009750;01.11.2021;14:25:59;Stop          ;04.12.2018;FEY;;LION;49;14500;7200;192;4;57;60;8400;3000;3755;3755;1;12997;28.44;29.84;32,6;BCS1388054;6;9
009750;07.02.2022;08:50:52;Normalcharge  ;04.12.2018;FEY;;LION;49;14500;7200;192;4;55;57;8400;3000;3711;3712;1;13015;22.24;22.64;25,0;BCS1388054;5;16
009750;07.02.2022;13:22:36;Stop          ;04.12.2018;FEY;;LION;49;14500;7200;224;4;96;100;8400;;4161;4162;1;13009;26.74;27.14;28,5;BCS1388054;5;16