Folder: Battery_sort_V2/reader/Batterieverzeichnis_new (part 6)

File: 009602.txt
Serialnumber ; Date ; Time ; Action ; Date of Manufacture ; Manufacturer ; Battery Name ; Device-Chemistry ; Specification-Info ; Design-Capacity [mAh] ; Design-Voltage [mV] ; Battery Status ; Cycle Count ; SOC [%] ; Relativ SOC[%] ; Desired Voltage [mV]; Desired Current [mA]; Cell Voltage 1 [mV] ; Cell Voltage 2 [mV] ; Max_Error [%] ; Busvoltage[mV] ; Battery Temperature [°C] ; Charger Temperature [°C] ; Batterysystem ; Case ; PLace
009602;12.01.2021;04:17:22;Charge to 90% ;04.12.2018;FEY;;LION;49;14500;7200;16576;4;97;98;;;4135;4132;1;13006;23.34;24.04;23,5;BCS1388054;2;17
009602;12.01.2021;04:54:21;Stop          ;04.12.2018;FEY;;LION;49;14500;7200;192;4;90;90;8400;3000;4051;4050;1;12999;27.14;32.24;31,9;BCS1388054;2;17
009602;12.01.2021;05:21:40;Cycle         ;04.12.2018;FEY;;LION;49;14500;7200;192;4;90;90;8400;3000;4062;4061;1;13001;27.44;28.74;30,6;BCS1388054;2;17
009602;13.01.2021;08:20:19;Stop          ;04.12.2018;FEY;;LION;49;14500;7200;224;5;97;100;8400;;4155;4155;1;13000;27.14;28.54;30,8;BCS1388054;2;17
009602;21.02.2021;13:43:49;Normalcharge  ;04.12.2018;FEY;;LION;49;14500;7200;224;5;96;99;8400;;4131;4131;1;13006;23.14;23.54;27,7;BCS1388054;3;12
009602;21.02.2021;20:44:52;Stop           ;04.12.2018;FEY;;LION;49;14500;7200;224;5;96;99;8400;;4132;4132;1;13002;26.64;27.04;31,2;BCS1388054;3;12
009602;06.04.2021;08:39:16;Normalcharge  ;04.12.2018;FEY;;LION;49;14500;7200;192;5;95;98;8400;;4116;4116;1;13011;21.44;25.84;28,1;BCS1388054;6;3
009602;06.04.2021;08:40:03;Stop          ;04.12.2018;FEY;;LION;49;14500;7200;192;5;95;98;8400;;4116;4116;1;12991;21.54;26.14;28,5;BCS1388054;6;3
009602;08.04.2021;07:58:44;Normalcharge  ;04.12.2018;FEY;;LION;49;14500;7200;192;5;95;98;8400;;4116;4116;1;13014;25.34;22.64;26,4;BCS1388054;6;3
009602;08.04.2021;07:59:23;Stop          ;04.12.2018;FEY;;LION;49;14500;7200;192;5;95;98;8400;;4116;4116;1;13014;25.34;25.74;26,7;BCS1388054;6;3
009602;08.04.2021;10:36:16;Normalcharge  ;04.12.2018;FEY;;LION;49;14500;7200;192;5;95;98;8400;;4116;4116;1;13013;25.64;26.54;28,6;BCS1388054;6;3
009602;08.04.2021;10:37:11;Stop          ;04.12.2018;FEY;;LION;49;14500;7200;192;5;95;98;8400;;4116;4116;1;12991;25.64;27.04;29,2;BCS1388054;6;3
009602;18.04.2021;08:34:33;Normalcharge  ;04.12.2018;FEY;;LION;49;14500;7200;192;5;95;97;8400;;4113;4113;1;13011;26.24;27.44;28,2;BCS1388054;6;3
009602;18.04.2021;08:34:41;Stop          ;04.12.2018;FEY;;LION;49;14500;7200;192;5;95;97;8400;;4113;4113;1;13010;26.24;27.54;28,2;BCS1388054;6;3
009602;04.08.2021;07:24:35;Normalcharge  ;04.12.2018;FEY;;LION;49;14500;7200;192;5;93;96;8400;;4086;4086;1;13007;30.34;30.64;31,5;BCS1388054;6;3
009602;04.08.2021;07:25:17;Stop          ;04.12.2018;FEY;;LION;49;14500;7200;192;5;93;96;8400;;4086;4086;1;12991;30.34;31.24;31,6;BCS1388054;6;3
009602;22.08.2021;11:37:17;Normalcharge  ;04.12.2018;FEY;;LION;49;14500;7200;192;5;87;89;8400;3000;4030;4031;1;13009;22.14;29.44;31,9;BCS1388054;6;17
009602;22.08.2021;11:37:57;Stop          ;04.12.2018;FEY;;LION;49;14500;7200;128;5;87;89;8400;3000;4059;4047;1;12850;22.24;31.04;32,0;BCS1388054;6;17
009602;14.10.2021;12:40:18;Normalcharge  ;04.12.2018;FEY;;LION;49;14500;7200;192;5;83;85;8400;3000;3975;3976;1;12997;23.84;25.54;28,1;BCS1388054;6;5
009602;14.10.2021;12:41:58;Stop          ;04.12.2018;FEY;;LION;49;14500;7200;128;5;83;85;8400;3000;4079;4032;1;12636;24.04;28.64;28,5;BCS1388054;6;5
009602;28.12.2021;09:01:25;Normalcharge  ;04.12.2018;FEY;;LION;49;14500;7200;192;5;69;71;8400;3000;3847;3848;1;13001;23.74;23.64;25,3;BCS1388054;3;6
009602;28.12.2021;09:02:24;Stop           ;04.12.2018;FEY;;LION;49;14500;7200;128;5;69;71;8400;3000;3940;3893;1;12557;23.74;25.54;25,8;BCS1388054;3;6
009602;07.02.2022;08:50:37;Normalcharge  ;04.12.2018;FEY;;LION;49;14500;7200;192;5;69;71;8400;3000;3839;3841;1;13029;22.44;21.44;25,0;BCS1388054;7;3
009602;07.02.2022;14:21:07;Stop          ;04.12.2018;FEY;;LION;49;14500;7200;224;5;98;100;8400;;4148;4149;1;13021;25.34;25.94;28,9;BCS1388054;7;3
009602;14.03.2022;10:33:51;Normalcharge  ;04.12.2018;FEY;;LION;49;14500;7200;192;6;60;63;8400;3000;3781;3787;1;13018;24.34;24.94;25,3;BCS1388054;5;9
009602;14.03.2022;10:38:12;Stop          ;04.12.2018;FEY;;LION;49;14500;7200;128;6;61;64;8400;3000;3897;3853;1;12711;24.54;30.14;28,1;BCS1388054;5;9

File: 009610.txt
Serialnumber ; Date ; Time ; Action ; Date of Manufacture ; Manufacturer ; Battery Name ; Device-Chemistry ; Specification-Info ; Design-Capacity [mAh] ; Design-Voltage [mV] ; Battery Status ; Cycle Count ; SOC [%] ; Relativ SOC[%] ; Desired Voltage [mV]; Desired Current [mA]; Cell Voltage 1 [mV] ; Cell Voltage 2 [mV] ; Max_Error [%] ; Busvoltage[mV] ; Battery Temperature [°C] ; Charger Temperature [°C] ; Batterysystem ; Case ; PLace
009610;07.12.2020;04:14:25;Cycle          ;04.12.2018;FEY;;LION;49;14500;7200;192;2;98;98;8400;;4151;4151;1;13004;25.74;28.54;30,3;BCS1388054;3;13
009610;08.12.2020;16:19:50;Stop           ;04.12.2018;FEY;;LION;49;14500;7200;192;2;98;98;8400;;4149;4149;1;13003;27.94;30.34;31,9;BCS1388054;3;13
009610;12.01.2021;04:17:40;Charge to 90% ;04.12.2018;FEY;;LION;49;14500;7200;192;2;96;97;8400;;4134;4134;1;13019;23.14;24.34;23,6;BCS1388054;6;15
009610;12.01.2021;05:00:55;Stop          ;04.12.2018;FEY;;LION;49;14500;7200;192;2;90;90;8400;3000;4063;4063;1;13012;26.74;30.44;31,2;BCS1388054;6;15
009610;12.01.2021;05:21:57;Cycle         ;04.12.2018;FEY;;LION;49;14500;7200;192;2;90;90;8400;3000;4067;4067;1;13014;26.94;29.24;30,4;BCS1388054;6;15
009610;13.01.2021;08:31:18;Stop          ;04.12.2018;FEY;;LION;49;14500;7200;224;3;96;100;8400;;4156;4155;1;13015;27.04;29.24;31,1;BCS1388054;6;15
009610;21.02.2021;13:44:56;Normalcharge  ;04.12.2018;FEY;;LION;49;14500;7200;192;3;72;75;8400;3000;3900;3900;1;12996;23.04;22.74;27,7;BCS1388054;5;13
009610;21.02.2021;19:31:36;Stop          ;04.12.2018;FEY;;LION;49;14500;7200;224;3;97;100;8400;;4153;4153;1;12993;27.24;28.34;30,6;BCS1388054;5;13
009610;06.04.2021;08:39:03;Normalcharge  ;04.12.2018;FEY;;LION;49;14500;7200;224;3;95;99;8400;;4130;4130;1;12998;21.34;25.34;28,1;BCS1388054;4;3
009610;06.04.2021;08:39:53;Stop          ;04.12.2018;FEY;;LION;49;14500;7200;224;3;95;99;8400;;4130;4130;1;12997;21.44;25.94;28,4;BCS1388054;4;3
009610;08.04.2021;07:58:12;Normalcharge  ;04.12.2018;FEY;;LION;49;14500;7200;224;3;95;99;8400;;4130;4130;1;12999;25.34;22.74;26,3;BCS1388054;4;3
009610;08.04.2021;07:59:34;Stop          ;04.12.2018;FEY;;LION;49;14500;7200;224;3;95;99;8400;;4129;4129;1;12979;25.34;26.34;26,7;BCS1388054;4;3
009610;08.04.2021;10:36:07;Normalcharge  ;04.12.2018;FEY;;LION;49;14500;7200;224;3;95;99;8400;;4129;4129;1;12997;25.54;26.44;28,5;BCS1388054;4;3
009610;08.04.2021;10:37:03;Stop          ;04.12.2018;FEY;;LION;49;14500;7200;224;3;95;99;8400;;4130;4130;1;12974;25.54;27.04;29,0;BCS1388054;4;3
009610;18.04.2021;08:34:04;Normalcharge  ;04.12.2018;FEY;;LION;49;14500;7200;192;3;95;98;8400;;4126;4126;1;12996;26.24;27.34;27,9;BCS1388054;4;3
009610;18.04.2021;08:34:10;Stop          ;04.12.2018;FEY;;LION;49;14500;7200;192;3;95;98;8400;;4126;4126;1;12996;26.24;27.34;28,1;BCS1388054;4;3
009610;04.08.2021;07:24:46;Normalcharge  ;04.12.2018;FEY;;LION;49;14500;7200;192;3;92;96;8400;;4096;4096;1;12992;30.34;31.04;31,5;BCS1388054;4;3
009610;04.08.2021;07:25:30;Stop          ;04.12.2018;FEY;;LION;49;14500;7200;192;3;92;96;8400;;4096;4096;1;12970;30.34;31.64;31,7;BCS1388054;4;3
009610;22.08.2021;11:37:17;Normalcharge  ;04.12.2018;FEY;;LION;49;14500;7200;192;3;92;96;8400;;4091;4091;1;12995;22.64;28.44;31,9;BCS1388054;6;4
009610;22.08.2021;11:37:57;Stop          ;04.12.2018;FEY;;LION;49;14500;7200;192;3;92;96;8400;;4091;4091;1;12873;22.74;28.74;32,0;BCS1388054;6;4
009610;14.10.2021;12:39:57;Normalcharge  ;04.12.2018;FEY;;LION;49;14500;7200;192;3;85;88;8400;3000;4008;4009;1;13001;24.84;26.64;27,9;BCS1388054;2;8
009610;14.10.2021;12:41:24;Stop          ;04.12.2018;FEY;;LION;49;14500;7200;128;3;85;88;8400;3000;4094;4056;1;12581;24.94;29.74;28,2;BCS1388054;2;8
009610;01.11.2021;09:52:10;Normalcharge  ;04.12.2018;FEY;;LION;49;14500;7200;192;4;82;85;8400;3000;3978;3978;1;13002;24.44;24.44;26,4;BCS1388054;3;2
009610;01.11.2021;09:53:26;Stop           ;04.12.2018;FEY;;LION;49;14500;7200;128;4;82;85;8400;3000;4075;4028;1;12617;24.44;27.94;27,1;BCS1388054;3;2
009610;01.11.2021;10:02:09;Normalcharge  ;04.12.2018;FEY;;LION;49;14500;7200;192;4;82;85;8400;3000;3980;3981;1;12996;24.74;27.34;29,5;BCS1388054;3;2
009610;01.11.2021;10:03:20;Stop           ;04.12.2018;FEY;;LION;49;14500;7200;128;4;82;85;8400;3000;4076;4031;1;12617;24.84;29.74;29,5;BCS1388054;3;2
009610;28.12.2021;09:01:33;Normalcharge  ;04.12.2018;FEY;;LION;49;14500;7200;192;4;46;48;8400;3000;3638;3639;1;12999;23.74;24.94;25,4;BCS1388054;5;7
009610;28.12.2021;09:02:46;Stop          ;04.12.2018;FEY;;LION;49;14500;7200;128;4;46;48;8400;3000;3724;3679;1;12655;23.74;27.94;26,0;BCS1388054;5;7
009610;07.02.2022;08:50:37;Normalcharge  ;04.12.2018;FEY;;LION;49;14500;7200;192;4;47;48;8400;3000;3633;3634;1;13037;22.24;21.34;25,0;BCS1388054;7;16
009610;07.02.2022;14:21:07;Stop          ;04.12.2018;FEY;;LION;49;14500;7200;224;4;97;100;8400;;4157;4158;1;13029;25.14;25.34;28,9;BCS1388054;7;16
009610;14.03.2022;12:14:26;Normalcharge  ;04.12.2018;FEY;;LION;49;14500;7200;224;4;95;99;8400;;4129;4130;1;13002;24.04;24.54;27,5;BCS1388054;5;14
009610;14.03.2022;12:18:30;Stop          ;04.12.2018;FEY;;LION;49;14500;7200;224;4;95;99;8400;;4129;4130;1;12998;24.14;25.74;29,5;BCS1388054;5;14
009610;29.03.2022;08:21:01;Normalcharge  ;04.12.2018;FEY;;LION;49;14500;7200;192;4;84;87;8400;3000;4003;4005;1;13017;24.84;24.84;25,8;BCS1388054;3;15
009610;29.03.2022;08:21:40;Stop           ;04.12.2018;FEY;;LION;49;14500;7200;128;4;84;87;8400;3000;4039;4022;1;12692;24.94;26.14;26,0;BCS1388054;3;15
009610;29.03.2022;08:22:08;Normalcharge  ;04.12.2018;FEY;;LION;49;14500;7200;128;4;84;87;8400;3000;4005;4008;1;13015;24.94;25.94;26,3;BCS1388054;3;15
009610;29.03.2022;08:22:36;Stop           ;04.12.2018;FEY;;LION;49;14500;7200;128;4;84;87;8400;3000;4029;4019;1;12707;24.94;26.74;26,4;BCS1388054;3;15

File: 009612.txt
Serialnumber ; Date ; Time ; Action ; Date of Manufacture ; Manufacturer ; Battery Name ; Device-Chemistry ; Specification-Info ; Design-Capacity [mAh] ; Design-Voltage [mV] ; Battery Status ; Cycle Count ; SOC [%] ; Relativ SOC[%] ; Desired Voltage [mV]; Desired Current [mA]; Cell Voltage 1 [mV] ; Cell Voltage 2 [mV] ; Max_Error [%] ; Busvoltage[mV] ; Battery Temperature [°C] ; Charger Temperature [°C] ; Batterysystem ; Case ; PLace
009612;07.12.2020;04:14:25;Cycle          ;04.12.2018;FEY;;LION;49;14500;7200;224;3;96;99;8400;;4144;4143;1;13002;25.74;26.84;30,3;BCS1388054;3;4
009612;08.12.2020;16:19:50;Stop           ;04.12.2018;FEY;;LION;49;14500;7200;224;5;97;100;8400;;4152;4152;1;13002;27.84;28.44;31,9;BCS1388054;3;4
009612;12.01.2021;04:17:33;Charge to 90% ;04.12.2018;FEY;;LION;49;14500;7200;224;5;95;99;8400;;4132;4132;1;12999;23.04;23.64;23,6;BCS1388054;4;5
009612;12.01.2021;04:57:16;Stop          ;04.12.2018;FEY;;LION;49;14500;7200;192;5;85;90;8400;3000;3944;3995;1;12994;27.84;30.94;31,6;BCS1388054;4;5
009612;12.01.2021;05:21:49;Cycle         ;04.12.2018;FEY;;LION;49;14500;7200;192;5;85;90;8400;3000;4049;4050;1;12995;27.54;27.14;30,4;BCS1388054;4;5
009612;13.01.2021;08:19:19;Stop          ;04.12.2018;FEY;;LION;49;14500;7200;224;6;95;100;8400;;4154;4154;1;12996;27.04;27.34;30,7;BCS1388054;4;5
009612;21.02.2021;13:43:19;Normalcharge  ;04.12.2018;FEY;;LION;49;14500;7200;192;6;92;97;8400;;4113;4113;1;13016;23.54;25.04;27,5;BCS1388054;1;16
009612;22.02.2021;17:08:49;Stop          ;04.12.2018;FEY;;LION;49;14500;7200;192;6;92;97;8400;;4113;4112;1;13015;26.14;26.84;30,0;BCS1388054;1;16
009612;04.04.2021;11:49:55;Normalcharge  ;04.12.2018;FEY;;LION;49;14500;7200;192;7;50;52;8400;3000;3667;3667;1;13029;25.04;25.54;27,5;BCS1388054;7;7
009612;04.04.2021;11:51:17;Stop          ;04.12.2018;FEY;;LION;49;14500;7200;128;7;50;52;8400;3000;3750;3705;1;12750;25.14;28.54;28,4;BCS1388054;7;7
009612;05.04.2021;09:38:17;Charge to 60% ;04.12.2018;FEY;;LION;49;14500;7200;192;7;50;52;8400;3000;3669;3670;1;13002;24.94;25.14;26,4;BCS1388054;5;6
009612;05.04.2021;10:34:50;Charge to 60% ;04.12.2018;FEY;;LION;49;14500;7200;192;7;57;60;8400;3000;3740;3742;1;12907;27.54;27.54;32,4;BCS1388054;5;6
009612;05.04.2021;13:16:09;Stop          ;04.12.2018;FEY;;LION;49;14500;7200;192;7;57;60;8400;3000;3738;3740;1;12999;27.44;27.74;32,2;BCS1388054;5;6
009612;22.08.2021;11:37:21;Normalcharge  ;04.12.2018;FEY;;LION;49;14500;7200;192;7;52;54;8400;3000;3664;3665;1;13010;21.94;28.74;31,9;BCS1388054;5;2
009612;22.08.2021;11:38:04;Stop          ;04.12.2018;FEY;;LION;49;14500;7200;128;7;52;54;8400;3000;3733;3694;1;12769;22.04;30.64;32,0;BCS1388054;5;2
009612;25.08.2021;08:15:02;Charge to 60% ;04.12.2018;FEY;;LION;49;14500;7200;192;7;52;54;8400;3000;3666;3667;1;13004;30.34;32.94;33,2;BCS1388054;5;2
009612;25.08.2021;13:03:31;Stop          ;04.12.2018;FEY;;LION;49;14500;7200;192;7;57;60;8400;3000;3720;3721;1;13003;32.84;35.94;36,6;BCS1388054;5;2
009612;28.12.2021;09:01:29;Normalcharge  ;04.12.2018;FEY;;LION;49;14500;7200;192;7;42;44;8400;3000;3619;3620;1;13017;23.64;23.14;25,4;BCS1388054;4;18
009612;28.12.2021;09:02:38;Stop          ;04.12.2018;FEY;;LION;49;14500;7200;128;7;42;45;8400;3000;3708;3661;1;12580;23.74;26.34;25,8;BCS1388054;4;18
009612;07.02.2022;08:50:37;Normalcharge  ;04.12.2018;FEY;;LION;49;14500;7200;192;7;42;44;8400;3000;3613;3614;1;13030;22.14;21.54;25,0;BCS1388054;7;18
009612;07.02.2022;14:21:07;Stop          ;04.12.2018;FEY;;LION;49;14500;7200;224;7;95;100;8400;;4163;4164;1;13024;24.74;26.14;28,9;BCS1388054;7;18

File: 009615.txt
Serialnumber ; Date ; Time ; Action ; Date of Manufacture ; Manufacturer ; Battery Name ; Device-Chemistry ; Specification-Info ; Design-Capacity [mAh] ; Design-Voltage [mV] ; Battery Status ; Cycle Count ; SOC [%] ; Relativ SOC[%] ; Desired Voltage [mV]; Desired Current [mA]; Cell Voltage 1 [mV] ; Cell Voltage 2 [mV] ; Max_Error [%] ; Busvoltage[mV] ; Battery Temperature [°C] ; Charger Temperature [°C] ; Batterysystem ; Case ; PLace
009615;07.12.2020;04:14:40;Cycle         ;04.12.2018;FEY;;LION;49;14500;7200;192;2;89;91;8400;3000;4056;4054;1;13019;25.54;27.54;30,3;BCS1388054;7;17
009615;08.12.2020;16:20:20;Stop          ;04.12.2018;FEY;;LION;49;14500;7200;224;3;97;100;8400;;4153;4153;1;13018;27.34;28.94;31,9;BCS1388054;7;17
009615;21.02.2021;13:43:19;Normalcharge  ;04.12.2018;FEY;;LION;49;14500;7200;192;3;90;93;8400;3000;4072;4072;1;12991;23.54;25.54;27,5;BCS1388054;1;9
009615;22.02.2021;17:08:49;Stop          ;04.12.2018;FEY;;LION;49;14500;7200;224;3;97;100;8400;;4146;4147;1;12990;26.14;27.34;30,0;BCS1388054;1;9
009615;06.04.2021;08:39:10;Normalcharge  ;04.12.2018;FEY;;LION;49;14500;7200;224;3;95;99;8400;;4128;4128;1;13012;21.74;25.24;28,1;BCS1388054;5;11
009615;06.04.2021;08:39:58;Stop          ;04.12.2018;FEY;;LION;49;14500;7200;224;3;95;99;8400;;4128;4128;1;13010;21.74;25.24;28,4;BCS1388054;5;11
009615;08.04.2021;07:58:30;Normalcharge  ;04.12.2018;FEY;;LION;49;14500;7200;224;3;95;99;8400;;4128;4128;1;13012;25.14;25.54;26,4;BCS1388054;5;11
009615;08.04.2021;07:59:28;Stop          ;04.12.2018;FEY;;LION;49;14500;7200;224;3;95;99;8400;;4128;4128;1;13012;25.14;25.74;26,7;BCS1388054;5;11
009615;08.04.2021;10:36:12;Normalcharge  ;04.12.2018;FEY;;LION;49;14500;7200;224;3;95;99;8400;;4128;4128;1;13009;25.34;26.14;28,6;BCS1388054;5;11
009615;08.04.2021;10:37:06;Stop          ;04.12.2018;FEY;;LION;49;14500;7200;224;3;95;99;8400;;4127;4127;1;13010;25.34;26.34;29,0;BCS1388054;5;11
009615;18.04.2021;08:34:16;Normalcharge  ;04.12.2018;FEY;;LION;49;14500;7200;224;3;95;99;8400;;4124;4124;1;13005;26.04;26.74;28,1;BCS1388054;5;11
009615;18.04.2021;08:34:27;Stop          ;04.12.2018;FEY;;LION;49;14500;7200;224;3;95;99;8400;;4124;4124;1;13006;26.04;26.84;28,2;BCS1388054;5;11
009615;04.08.2021;07:24:41;Normalcharge  ;04.12.2018;FEY;;LION;49;14500;7200;192;3;93;96;8400;;4093;4093;1;13006;30.14;30.84;31,5;BCS1388054;5;11
009615;04.08.2021;07:25:23;Stop          ;04.12.2018;FEY;;LION;49;14500;7200;192;3;93;96;8400;;4093;4093;1;13005;30.14;31.04;31,6;BCS1388054;5;11
009615;22.08.2021;11:37:17;Normalcharge  ;04.12.2018;FEY;;LION;49;14500;7200;192;3;92;95;8400;3000;4088;4088;1;12996;22.24;29.14;31,9;BCS1388054;6;8
009615;22.08.2021;11:37:57;Stop          ;04.12.2018;FEY;;LION;49;14500;7200;128;3;92;95;8400;3000;4118;4107;1;12858;22.34;30.34;32,0;BCS1388054;6;8
009615;14.10.2021;12:39:52;Normalcharge  ;04.12.2018;FEY;;LION;49;14500;7200;192;3;84;88;8400;3000;4008;4009;1;13007;25.14;25.24;27,9;BCS1388054;1;13
009615;14.10.2021;12:41:15;Stop          ;04.12.2018;FEY;;LION;49;14500;7200;128;3;84;88;8400;3000;4094;4053;1;12477;25.24;28.64;28,2;BCS1388054;1;13
009615;28.12.2021;09:01:29;Normalcharge  ;04.12.2018;FEY;;LION;49;14500;7200;192;3;78;81;8400;3000;3933;3934;1;13018;23.64;24.84;25,4;BCS1388054;4;16
009615;28.12.2021;09:02:38;Stop          ;04.12.2018;FEY;;LION;49;14500;7200;128;3;78;82;8400;3000;4031;3983;1;12585;23.64;27.44;25,8;BCS1388054;4;16
009615;07.02.2022;08:50:47;Normalcharge  ;04.12.2018;FEY;;LION;49;14500;7200;192;3;78;82;8400;3000;3925;3925;1;13006;22.24;21.34;25,0;BCS1388054;6;5
009615;13.02.2022;10:58:25;Normalcharge  ;04.12.2018;FEY;;LION;49;14500;7200;224;3;97;100;8400;;4142;4141;1;13011;22.64;23.34;26,1;BCS1388054;3;13
009615;13.02.2022;17:19:51;Stop           ;04.12.2018;FEY;;LION;49;14500;7200;224;3;97;100;8400;;4142;4141;1;13003;25.04;27.44;29,0;BCS1388054;3;13

File: 009623.txt
Serialnumber ; Date ; Time ; Action ; Date of Manufacture ; Manufacturer ; Battery Name ; Device-Chemistry ; Specification-Info ; Design-Capacity [mAh] ; Design-Voltage [mV] ; Battery Status ; Cycle Count ; SOC [%] ; Relativ SOC[%] ; Desired Voltage [mV]; Desired Current [mA]; Cell Voltage 1 [mV] ; Cell Voltage 2 [mV] ; Max_Error [%] ; Busvoltage[mV] ; Battery Temperature [°C] ; Charger Temperature [°C] ; Batterysystem ; Case ; PLace
009623;10.12.2019;15:29:01;Charge to 30% ;04.12.2018;FEY;;LION;49;14500;7200;224;50;95;100;8400;;4129;4129;1;13007;22.74;23.84;27,1;BCS1388054;5;6
009623;10.12.2019;20:48:54;Stop          ;04.12.2018;FEY;;LION;49;14500;7200;192;51;29;30;8400;3000;3465;3517;1;13006;32.74;32.34;33,1;BCS1388054;5;6
009623;11.12.2019;08:48:53;Fastcharge    ;04.12.2018;FEY;;LION;49;14500;7200;192;51;29;31;8400;3000;3563;3563;1;13007;26.54;26.84;31,9;BCS1388054;5;6
009623;11.12.2019;13:40:11;Stop          ;04.12.2018;FEY;;LION;49;14500;7200;224;51;95;100;8400;;4163;4163;1;13006;29.14;28.14;32,4;BCS1388054;5;6
009623;11.12.2019;15:46:40;Charge to 10% ;04.12.2018;FEY;;LION;49;14500;7200;224;51;97;100;8400;;4151;4151;1;13006;27.04;26.64;31,4;BCS1388054;5;6
009623;11.12.2019;22:49:07;Stop          ;04.12.2018;FEY;;LION;49;14500;7200;192;52;10;10;8400;3000;3344;3345;1;13006;33.24;31.14;33,5;BCS1388054;5;6
009623;12.12.2019;08:45:10;Normalcharge  ;04.12.2018;FEY;;LION;49;14500;7200;192;52;9;10;8400;3000;3360;3361;1;13005;26.74;26.64;31,7;BCS1388054;5;6
009623;12.12.2019;16:41:20;Stop          ;04.12.2018;FEY;;LION;49;14500;7200;224;52;96;100;8400;;4163;4162;1;13006;28.64;27.64;31,6;BCS1388054;5;6
009623;13.12.2019;10:48:05;Charge to 10% ;04.12.2018;FEY;;LION;49;14500;7200;224;52;97;100;8400;;4148;4146;1;13006;26.64;27.14;32,0;BCS1388054;5;6
009623;13.12.2019;15:40:55;Stop          ;04.12.2018;FEY;;LION;49;14500;7200;192;53;36;38;8400;3000;3503;3554;1;13514;31.94;33.04;34,6;BCS1388054;5;6
009623;13.12.2019;15:41:42;Cycle         ;04.12.2018;FEY;;LION;49;14500;7200;192;53;36;38;8400;3000;3584;3584;1;13007;31.94;31.24;34,5;BCS1388054;5;6
009623;14.12.2019;22:39:35;Stop          ;04.12.2018;FEY;;LION;49;14500;7200;224;54;94;99;8400;;4152;4152;1;13007;26.64;26.94;31,7;BCS1388054;5;6
009623;16.12.2019;07:43:20;Charge to 10% ;04.12.2018;FEY;;LION;49;14500;7200;224;54;94;100;8400;;4146;4145;1;13007;26.44;25.74;31,9;BCS1388054;5;6
009623;16.12.2019;14:34:29;Stop          ;04.12.2018;FEY;;LION;49;14500;7200;192;55;10;10;8400;3000;3264;3316;1;13007;31.74;31.44;32,5;BCS1388054;5;6
009623;16.12.2019;14:44:17;Charge to 90% ;04.12.2018;FEY;;LION;49;14500;7200;192;55;10;10;8400;3000;3364;3365;1;13007;31.04;28.34;31,9;BCS1388054;5;6
009623;16.12.2019;20:48:55;Stop          ;04.12.2018;FEY;;LION;49;14500;7200;128;55;85;90;8400;3000;4067;4068;1;13007;30.94;29.14;31,9;BCS1388054;5;6
009623;17.12.2019;08:37:53;Fastcharge    ;04.12.2018;FEY;;LION;49;14500;7200;192;55;85;90;8400;3000;4046;4047;1;13006;26.54;26.74;31,6;BCS1388054;5;6
009623;17.12.2019;10:33:46;Stop          ;04.12.2018;FEY;;LION;49;14500;7200;224;55;96;100;8400;;4160;4162;1;13006;27.84;27.24;31,1;BCS1388054;5;6
009623;17.12.2019;10:33:46;Stop          ;04.12.2018;FEY;;LION;49;14500;7200;224;55;96;100;8400;;4160;4162;1;13006;27.84;27.24;31,1;BCS1388054;5;6
009623;17.12.2019;13:38:36;Charge to 10% ;04.12.2018;FEY;;LION;49;14500;7200;224;55;96;100;8400;;4150;4151;1;13007;26.74;26.64;30,8;BCS1388054;5;6
009623;17.12.2019;20:33:18;Stop          ;04.12.2018;FEY;;LION;49;14500;7200;192;56;10;10;8400;3000;3348;3350;1;13007;33.24;32.74;34,5;BCS1388054;5;6
009623;18.12.2019;08:31:30;Fastcharge    ;04.12.2018;FEY;;LION;49;14500;7200;192;56;9;10;8400;3000;3369;3370;1;13007;26.64;26.44;31,6;BCS1388054;5;6
009623;18.12.2019;14:29:27;Stop          ;04.12.2018;FEY;;LION;49;14500;7200;224;56;95;100;8400;;4161;4164;1;13006;29.14;27.74;31,7;BCS1388054;5;6
009623;19.12.2019;08:24:02;Charge to 60% ;04.12.2018;FEY;;LION;49;14500;7200;224;56;96;100;8400;;4147;4149;1;13006;26.54;26.84;31,5;BCS1388054;5;6
009623;19.12.2019;11:31:09;Stop          ;04.12.2018;FEY;;LION;49;14500;7200;192;57;58;60;8400;3000;3759;3762;1;13005;33.24;31.04;34,4;BCS1388054;5;6
009623;19.12.2019;12:16:49;Cycle         ;04.12.2018;FEY;;LION;49;14500;7200;192;57;58;60;8400;3000;3773;3777;1;13007;29.64;28.24;32,7;BCS1388054;5;6
009623;20.12.2019;17:27:50;Stop          ;04.12.2018;FEY;;LION;49;14500;7200;224;58;94;100;8400;;4151;4151;1;13006;26.84;26.14;31,0;BCS1388054;5;6
009623;06.01.2020;06:34:55;Charge to 60% ;04.12.2018;FEY;;LION;49;14500;7200;224;58;94;99;8400;;4121;4121;1;13007;26.84;26.84;31,9;BCS1388054;5;6
009623;06.01.2020;09:30:26;Stop          ;04.12.2018;FEY;;LION;49;14500;7200;192;59;57;60;8400;3000;3770;3771;1;13008;32.44;30.44;33,9;BCS1388054;5;6
009623;06.01.2020;09:50:42;Fastcharge    ;04.12.2018;FEY;;LION;49;14500;7200;192;59;57;60;8400;3000;3780;3782;1;13008;30.74;29.14;32,7;BCS1388054;5;6
009623;06.01.2020;13:09:56;Stop          ;04.12.2018;FEY;;LION;49;14500;7200;224;59;95;100;8400;;4160;4162;1;13007;28.64;27.14;31,4;BCS1388054;5;6