Folder: Battery_sort_V2/reader/Batterieverzeichnis_new (part 16)

File: 009811.txt
Serialnumber ; Date ; Time ; Action ; Date of Manufacture ; Manufacturer ; Battery Name ; Device-Chemistry ; Specification-Info ; Design-Capacity [mAh] ; Design-Voltage [mV] ; Battery Status ; Cycle Count ; SOC [%] ; Relativ SOC[%] ; Desired Voltage [mV]; Desired Current [mA]; Cell Voltage 1 [mV] ; Cell Voltage 2 [mV] ; Max_Error [%] ; Busvoltage[mV] ; Battery Temperature [°C] ; Charger Temperature [°C] ; Batterysystem ; Case ; PLace
009811;07.12.2020;04:14:36;Cycle         ;03.12.2018;FEY;;LION;49;14500;7200;192;2;97;98;8400;;4138;4138;1;12996;25.14;26.24;30,3;BCS1388054;6;5
009811;08.12.2020;16:20:13;Stop          ;03.12.2018;FEY;;LION;49;14500;7200;192;2;97;98;8400;;4135;4135;1;12996;27.14;27.64;31,9;BCS1388054;6;5
009811;07.02.2021;08:46:53;Normalcharge  ;03.12.2018;FEY;;LION;49;14500;7200;192;2;95;96;8400;;4115;4115;1;13012;22.94;26.04;29,2;BCS1388054;3;3
009811;07.02.2021;11:52:16;Stop           ;03.12.2018;FEY;;LION;49;14500;7200;192;2;95;96;8400;;4115;4115;1;13013;25.34;27.34;29,7;BCS1388054;3;3
009811;03.03.2021;08:17:35;Normalcharge  ;03.12.2018;FEY;;LION;49;14500;7200;192;3;73;74;8400;3000;3893;3893;1;13018;22.64;24.34;23,6;BCS1388054;5;15
009811;03.03.2021;11:26:36;Stop          ;03.12.2018;FEY;;LION;49;14500;7200;224;3;100;100;8400;;4158;4160;1;13011;28.34;30.94;31,5;BCS1388054;5;15
009811;06.04.2021;08:38:46;Normalcharge  ;03.12.2018;FEY;;LION;49;14500;7200;224;3;98;99;8400;;4133;4133;1;13006;20.04;25.74;28,1;BCS1388054;2;17
009811;06.04.2021;08:39:36;Stop          ;03.12.2018;FEY;;LION;49;14500;7200;224;3;98;99;8400;;4133;4134;1;13004;20.14;25.94;28,2;BCS1388054;2;17
009811;08.04.2021;07:57:57;Normalcharge  ;03.12.2018;FEY;;LION;49;14500;7200;224;3;98;99;8400;;4132;4133;1;13008;24.74;25.84;26,3;BCS1388054;2;17
009811;08.04.2021;07:59:45;Stop          ;03.12.2018;FEY;;LION;49;14500;7200;224;3;98;99;8400;;4132;4133;1;13003;24.74;26.64;26,8;BCS1388054;2;17
009811;08.04.2021;10:35:00;Normalcharge  ;03.12.2018;FEY;;LION;49;14500;7200;224;3;98;99;8400;;4132;4133;1;13006;25.14;26.24;28,1;BCS1388054;2;17
009811;08.04.2021;10:36:53;Stop          ;03.12.2018;FEY;;LION;49;14500;7200;224;3;98;99;8400;;4132;4133;1;13002;25.14;27.14;28,9;BCS1388054;2;17
009811;18.04.2021;08:33:36;Normalcharge  ;03.12.2018;FEY;;LION;49;14500;7200;224;3;98;99;8400;;4128;4129;1;13005;25.64;27.24;27,7;BCS1388054;2;17
009811;18.04.2021;08:33:44;Stop          ;03.12.2018;FEY;;LION;49;14500;7200;224;3;98;99;8400;;4128;4129;1;13004;25.64;27.24;27,8;BCS1388054;2;17
009811;04.08.2021;07:24:55;Normalcharge  ;03.12.2018;FEY;;LION;49;14500;7200;192;3;95;96;8400;;4095;4095;1;12998;29.94;31.54;31,5;BCS1388054;2;17
009811;04.08.2021;07:25:47;Stop          ;03.12.2018;FEY;;LION;49;14500;7200;192;3;95;96;8400;;4095;4095;1;12995;29.94;31.94;31,9;BCS1388054;2;17
009811;22.08.2021;11:08:05;Normalcharge  ;03.12.2018;FEY;;LION;49;14500;7200;192;3;70;72;8400;3000;3865;3866;1;12999;22.04;29.24;32,1;BCS1388054;4;17
009811;22.08.2021;11:08:38;Stop          ;03.12.2018;FEY;;LION;49;14500;7200;128;3;70;72;8400;3000;3927;3895;1;12649;22.14;30.44;32,5;BCS1388054;4;17
009811;12.10.2021;12:58:56;Normalcharge  ;03.12.2018;FEY;;LION;49;14500;7200;192;3;70;72;8400;3000;3855;3856;1;13013;22.94;27.84;28,5;BCS1388054;6;17
009811;12.10.2021;12:59:25;Stop          ;03.12.2018;FEY;;LION;49;14500;7200;192;3;70;72;8400;3000;3855;3856;1;12972;23.04;28.94;28,6;BCS1388054;6;17
009811;14.10.2021;12:40:12;Normalcharge  ;03.12.2018;FEY;;LION;49;14500;7200;192;3;70;72;8400;3000;3855;3856;1;13003;23.24;25.74;27,9;BCS1388054;5;6
009811;14.10.2021;12:41:49;Stop          ;03.12.2018;FEY;;LION;49;14500;7200;128;3;71;72;8400;3000;3951;3904;1;12639;23.44;28.14;28,5;BCS1388054;5;6
009811;07.02.2022;08:51:04;Normalcharge  ;03.12.2018;FEY;;LION;49;14500;7200;192;3;71;73;8400;3000;3829;3830;1;13009;21.74;22.54;25,1;BCS1388054;3;5
009811;07.02.2022;14:32:56;Stop           ;03.12.2018;FEY;;LION;49;14500;7200;224;3;98;100;8400;;4150;4151;1;13004;25.14;26.04;30,8;BCS1388054;3;5
009811;14.03.2022;12:14:16;Normalcharge  ;03.12.2018;FEY;;LION;49;14500;7200;224;3;96;99;8400;;4129;4129;1;13021;23.54;25.44;27,4;BCS1388054;7;10
009811;14.03.2022;12:18:09;Stop          ;03.12.2018;FEY;;LION;49;14500;7200;224;3;96;99;8400;;4129;4129;1;12807;23.54;26.34;29,3;BCS1388054;7;10

File: 009820.txt
Serialnumber ; Date ; Time ; Action ; Date of Manufacture ; Manufacturer ; Battery Name ; Device-Chemistry ; Specification-Info ; Design-Capacity [mAh] ; Design-Voltage [mV] ; Battery Status ; Cycle Count ; SOC [%] ; Relativ SOC[%] ; Desired Voltage [mV]; Desired Current [mA]; Cell Voltage 1 [mV] ; Cell Voltage 2 [mV] ; Max_Error [%] ; Busvoltage[mV] ; Battery Temperature [°C] ; Charger Temperature [°C] ; Batterysystem ; Case ; PLace
009820;07.02.2021;08:46:54;Normalcharge  ;04.12.2018;FEY;;LION;49;14500;7200;192;6;93;95;8400;3000;4086;4087;1;13002;23.74;24.04;29,2;BCS1388054;3;11
009820;07.02.2021;11:52:16;Stop           ;04.12.2018;FEY;;LION;49;14500;7200;224;6;98;100;8400;;4149;4151;1;13001;26.04;25.34;29,7;BCS1388054;3;11
009820;03.03.2021;08:17:29;Normalcharge  ;04.12.2018;FEY;;LION;49;14500;7200;192;6;87;90;8400;3000;4033;4034;1;13000;23.34;23.44;23,5;BCS1388054;4;5
009820;03.03.2021;10:32:46;Stop          ;04.12.2018;FEY;;LION;49;14500;7200;224;6;98;100;8400;;4154;4155;1;12995;28.24;28.54;32,0;BCS1388054;4;5
009820;04.04.2021;11:50:10;Normalcharge  ;04.12.2018;FEY;;LION;49;14500;7200;192;7;52;54;8400;3000;3683;3683;1;13010;25.24;26.14;27,8;BCS1388054;5;4
009820;04.04.2021;11:51:30;Stop          ;04.12.2018;FEY;;LION;49;14500;7200;128;7;52;54;8400;3000;3772;3723;1;12683;25.24;29.24;28,5;BCS1388054;5;4
009820;05.04.2021;09:38:11;Charge to 60% ;04.12.2018;FEY;;LION;49;14500;7200;192;7;52;54;8400;3000;3686;3686;1;13008;25.24;25.54;26,3;BCS1388054;4;8
009820;05.04.2021;10:13:52;Stop          ;04.12.2018;FEY;;LION;49;14500;7200;192;7;58;60;8400;3000;3755;3754;1;13004;27.74;29.14;32,1;BCS1388054;4;8
009820;22.08.2021;11:37:21;Normalcharge  ;04.12.2018;FEY;;LION;49;14500;7200;192;7;54;56;8400;3000;3697;3697;1;13002;22.24;27.84;31,9;BCS1388054;5;1
009820;22.08.2021;11:38:04;Stop          ;04.12.2018;FEY;;LION;49;14500;7200;128;7;54;56;8400;3000;3761;3726;1;12763;22.44;29.64;32,0;BCS1388054;5;1
009820;25.08.2021;08:15:02;Charge to 60% ;04.12.2018;FEY;;LION;49;14500;7200;192;7;54;56;8400;3000;3699;3699;1;13001;30.54;31.74;33,2;BCS1388054;5;1
009820;25.08.2021;13:03:31;Stop          ;04.12.2018;FEY;;LION;49;14500;7200;192;7;58;60;8400;3000;3746;3745;1;12999;32.94;34.14;36,6;BCS1388054;5;1
009820;28.12.2021;09:01:29;Normalcharge  ;04.12.2018;FEY;;LION;49;14500;7200;192;7;35;36;8400;3000;3570;3570;1;13010;23.84;24.24;25,4;BCS1388054;4;12
009820;28.12.2021;09:02:38;Stop          ;04.12.2018;FEY;;LION;49;14500;7200;128;7;35;36;8400;3000;3660;3612;1;12579;23.94;25.94;25,8;BCS1388054;4;12
009820;28.12.2021;12:53:01;Stop          ;04.12.2018;FEY;;LION;49;14500;7200;192;7;58;60;8400;3000;3728;3728;1;12987;25.04;25.34;27,8;BCS1388054;4;12
009820;07.02.2022;08:50:37;Normalcharge  ;04.12.2018;FEY;;LION;49;14500;7200;192;7;55;57;8400;3000;3701;3700;1;13031;22.34;21.24;25,0;BCS1388054;7;6
009820;07.02.2022;14:21:07;Stop          ;04.12.2018;FEY;;LION;49;14500;7200;224;7;98;100;8400;;4155;4155;1;13024;25.14;24.74;28,9;BCS1388054;7;6
009820;14.03.2022;12:14:21;Normalcharge  ;04.12.2018;FEY;;LION;49;14500;7200;192;7;92;94;8400;3000;4085;4084;1;13007;24.04;24.64;27,5;BCS1388054;6;4
009820;14.03.2022;12:18:18;Stop          ;04.12.2018;FEY;;LION;49;14500;7200;128;7;93;95;8400;3000;4160;4132;1;12838;24.24;28.14;29,3;BCS1388054;6;4
009820;29.03.2022;08:20:53;Normalcharge  ;04.12.2018;FEY;;LION;49;14500;7200;192;8;81;83;8400;3000;3963;3963;1;13014;25.04;25.14;25,7;BCS1388054;5;16
009820;29.03.2022;08:21:28;Stop          ;04.12.2018;FEY;;LION;49;14500;7200;128;8;81;83;8400;3000;3984;3975;1;12859;25.04;26.24;25,8;BCS1388054;5;16
009820;29.03.2022;08:22:15;Normalcharge  ;04.12.2018;FEY;;LION;49;14500;7200;128;8;81;83;8400;3000;3964;3966;1;13012;25.04;26.04;26,3;BCS1388054;5;16
009820;29.03.2022;08:22:21;Stop          ;04.12.2018;FEY;;LION;49;14500;7200;128;8;81;83;8400;3000;3964;3966;1;13001;25.04;26.14;26,3;BCS1388054;5;16

File: 009822.txt
Serialnumber ; Date ; Time ; Action ; Date of Manufacture ; Manufacturer ; Battery Name ; Device-Chemistry ; Specification-Info ; Design-Capacity [mAh] ; Design-Voltage [mV] ; Battery Status ; Cycle Count ; SOC [%] ; Relativ SOC[%] ; Desired Voltage [mV]; Desired Current [mA]; Cell Voltage 1 [mV] ; Cell Voltage 2 [mV] ; Max_Error [%] ; Busvoltage[mV] ; Battery Temperature [°C] ; Charger Temperature [°C] ; Batterysystem ; Case ; PLace
009822;07.12.2020;04:14:25;Cycle          ;04.12.2018;FEY;;LION;49;14500;7200;224;2;97;99;8400;;4137;4139;1;13000;25.44;27.54;30,3;BCS1388054;3;2
009822;08.12.2020;16:19:50;Stop           ;04.12.2018;FEY;;LION;49;14500;7200;224;4;97;100;8400;;4150;4153;1;12999;27.74;29.34;31,9;BCS1388054;3;2
009822;03.03.2021;08:17:29;Normalcharge  ;04.12.2018;FEY;;LION;49;14500;7200;192;4;86;89;8400;3000;4025;4026;1;13009;22.94;23.84;23,5;BCS1388054;4;7
009822;03.03.2021;10:32:46;Stop          ;04.12.2018;FEY;;LION;49;14500;7200;224;4;97;100;8400;;4155;4157;1;13004;28.24;30.34;32,0;BCS1388054;4;7
009822;04.04.2021;11:50:33;Normalcharge  ;04.12.2018;FEY;;LION;49;14500;7200;192;4;59;61;8400;3000;3756;3761;1;13001;24.74;26.74;27,9;BCS1388054;2;12
009822;04.04.2021;11:51:48;Stop          ;04.12.2018;FEY;;LION;49;14500;7200;128;4;59;61;8400;3000;3849;3807;1;12580;24.84;28.74;28,6;BCS1388054;2;12
009822;05.04.2021;09:37:37;Charge to 60% ;04.12.2018;FEY;;LION;49;14500;7200;192;4;59;61;8400;3000;3760;3764;1;12993;24.84;25.74;26,0;BCS1388054;1;4
009822;05.04.2021;10:01:53;Stop          ;04.12.2018;FEY;;LION;49;14500;7200;192;4;58;60;8400;3000;3743;3746;1;12991;25.64;27.84;31,2;BCS1388054;1;4
009822;22.08.2021;11:08:18;Normalcharge  ;04.12.2018;FEY;;LION;49;14500;7200;192;4;54;55;8400;3000;3701;3703;1;13024;29.64;30.24;32,2;BCS1388054;7;7
009822;22.08.2021;11:08:51;Stop          ;04.12.2018;FEY;;LION;49;14500;7200;128;4;54;55;8400;3000;3731;3716;1;12842;29.64;31.54;32,6;BCS1388054;7;7
009822;25.08.2021;08:15:15;Ladung auf 60% ;04.12.2018;FEY;;LION;49;14500;7200;192;4;54;56;8400;3000;3701;3702;1;12993;30.04;30.44;33,4;BCS1388054;3;11
009822;25.08.2021;08:40:44;Stop           ;04.12.2018;FEY;;LION;49;14500;7200;192;4;58;60;8400;3000;3753;3756;1;12994;31.94;32.64;36,1;BCS1388054;3;11
009822;01.11.2021;09:52:00;Normalcharge  ;04.12.2018;FEY;;LION;49;14500;7200;192;4;55;57;8400;3000;3718;3719;1;13015;25.54;26.14;26,3;BCS1388054;5;2
009822;01.11.2021;09:53:40;Stop          ;04.12.2018;FEY;;LION;49;14500;7200;128;4;56;58;8400;3000;3813;3764;1;12616;25.64;30.54;27,3;BCS1388054;5;2
009822;01.11.2021;10:02:19;Normalcharge  ;04.12.2018;FEY;;LION;49;14500;7200;192;4;56;58;8400;3000;3723;3724;1;13010;25.74;29.04;29,5;BCS1388054;5;2
009822;01.11.2021;10:03:11;Stop          ;04.12.2018;FEY;;LION;49;14500;7200;128;4;56;58;8400;3000;3810;3765;1;12612;25.74;31.04;29,3;BCS1388054;5;2
009822;01.11.2021;10:27:35;Normalcharge  ;04.12.2018;FEY;;LION;49;14500;7200;192;4;56;58;8400;3000;3724;3725;1;13012;26.04;27.04;27,8;BCS1388054;5;2
009822;01.11.2021;10:29:14;Stop          ;04.12.2018;FEY;;LION;49;14500;7200;128;4;56;58;8400;3000;3818;3770;1;12611;26.04;31.34;28,6;BCS1388054;5;2
009822;01.11.2021;10:32:33;Charge to 60% ;04.12.2018;FEY;;LION;49;14500;7200;192;4;56;58;8400;3000;3729;3730;1;13006;26.14;28.94;29,9;BCS1388054;5;2
009822;01.11.2021;11:11:47;Stop          ;04.12.2018;FEY;;LION;49;14500;7200;192;4;58;60;8400;3000;3751;3753;1;13006;27.34;31.04;32,5;BCS1388054;5;2
009822;07.02.2022;08:50:57;Normalcharge  ;04.12.2018;FEY;;LION;49;14500;7200;192;4;55;57;8400;3000;3711;3712;1;13000;22.04;22.54;25,1;BCS1388054;4;5
009822;07.02.2022;13:19:09;Stop          ;04.12.2018;FEY;;LION;49;14500;7200;224;4;97;100;8400;;4160;4160;1;12995;26.74;26.64;29,7;BCS1388054;4;5
009822;14.03.2022;10:34:44;Normalcharge  ;04.12.2018;FEY;;LION;49;14500;7200;224;4;95;99;8400;;4129;4129;1;12992;24.14;25.84;26,0;BCS1388054;1;2
009822;14.03.2022;10:38:55;Stop          ;04.12.2018;FEY;;LION;49;14500;7200;224;4;95;99;8400;;4129;4129;1;12963;24.14;26.94;28,2;BCS1388054;1;2

File: 009823.txt
Serialnumber ; Date ; Time ; Action ; Date of Manufacture ; Manufacturer ; Battery Name ; Device-Chemistry ; Specification-Info ; Design-Capacity [mAh] ; Design-Voltage [mV] ; Battery Status ; Cycle Count ; SOC [%] ; Relativ SOC[%] ; Desired Voltage [mV]; Desired Current [mA]; Cell Voltage 1 [mV] ; Cell Voltage 2 [mV] ; Max_Error [%] ; Busvoltage[mV] ; Battery Temperature [°C] ; Charger Temperature [°C] ; Batterysystem ; Case ; PLace
009823;07.12.2020;04:14:32;Cycle         ;04.12.2018;FEY;;LION;49;14500;7200;16576;2;99;98;;;4144;4144;1;13003;25.94;27.04;30,3;BCS1388054;5;12
009823;08.12.2020;16:20:01;Stop          ;04.12.2018;FEY;;LION;49;14500;7200;16576;2;99;98;;;4142;4142;1;13000;27.84;28.34;31,7;BCS1388054;5;12
009823;07.02.2021;08:46:53;Normalcharge  ;04.12.2018;FEY;;LION;49;14500;7200;16576;2;97;96;;;4119;4119;1;13001;23.64;25.74;29,2;BCS1388054;3;2
009823;07.02.2021;11:52:16;Stop           ;04.12.2018;FEY;;LION;49;14500;7200;16576;2;97;96;;;4119;4119;1;13003;25.94;27.14;29,7;BCS1388054;3;2
009823;03.03.2021;08:17:21;Normalcharge  ;04.12.2018;FEY;;LION;49;14500;7200;16576;2;92;92;;;4073;4074;1;13014;23.24;23.04;23,5;BCS1388054;3;15
009823;04.03.2021;07:53:40;Stop           ;04.12.2018;FEY;;LION;49;14500;7200;16576;2;92;92;;;4073;4074;1;13009;26.64;28.04;31,5;BCS1388054;3;15
009823;04.04.2021;11:50:28;Normalcharge  ;04.12.2018;FEY;;LION;49;14500;7200;192;2;91;90;8400;3000;4052;4053;1;13005;25.04;25.74;27,9;BCS1388054;3;18
009823;04.04.2021;11:51:43;Stop           ;04.12.2018;FEY;;LION;49;14500;7200;128;2;91;91;8400;3000;4121;4090;1;12771;25.14;28.44;28,6;BCS1388054;3;18
009823;22.08.2021;11:37:25;Normalcharge  ;04.12.2018;FEY;;LION;49;14500;7200;192;3;30;31;8400;3000;3560;3561;1;12991;21.34;28.34;31,9;BCS1388054;4;11
009823;22.08.2021;11:38:13;Stop          ;04.12.2018;FEY;;LION;49;14500;7200;128;3;30;31;8400;3000;3631;3593;1;12601;21.54;30.14;32,1;BCS1388054;4;11
009823;25.08.2021;08:15:08;Charge to 60% ;04.12.2018;FEY;;LION;49;14500;7200;192;3;30;30;8400;3000;3562;3563;1;12990;30.54;31.34;33,4;BCS1388054;4;11
009823;25.08.2021;12:59:17;Stop          ;04.12.2018;FEY;;LION;49;14500;7200;192;3;58;60;8400;3000;3761;3766;1;12989;32.74;33.24;36,6;BCS1388054;4;11
009823;01.11.2021;09:52:21;Normalcharge  ;04.12.2018;FEY;;LION;49;14500;7200;192;3;54;55;8400;3000;3719;3720;1;13003;26.04;26.04;26,4;BCS1388054;1;7
009823;01.11.2021;09:53:14;Stop          ;04.12.2018;FEY;;LION;49;14500;7200;128;3;54;55;8400;3000;3804;3758;1;12481;26.04;28.34;26,8;BCS1388054;1;7
009823;01.11.2021;10:01:59;Normalcharge  ;04.12.2018;FEY;;LION;49;14500;7200;192;3;54;55;8400;3000;3721;3723;1;12998;26.14;27.84;29,5;BCS1388054;1;7
009823;01.11.2021;10:03:29;Stop          ;04.12.2018;FEY;;LION;49;14500;7200;128;3;54;55;8400;3000;3813;3767;1;12470;26.24;30.74;29,3;BCS1388054;1;7
009823;01.11.2021;10:27:58;Normalcharge  ;04.12.2018;FEY;;LION;49;14500;7200;192;3;54;55;8400;3000;3725;3727;1;13001;26.44;26.54;27,8;BCS1388054;1;7
009823;01.11.2021;10:28:31;Stop          ;04.12.2018;FEY;;LION;49;14500;7200;128;3;54;55;8400;3000;3757;3741;1;12675;26.44;27.74;28,1;BCS1388054;1;7
009823;01.11.2021;10:31:48;Charge to 60% ;04.12.2018;FEY;;LION;49;14500;7200;192;3;54;55;8400;3000;3726;3728;1;13000;26.44;25.94;29,9;BCS1388054;1;7
009823;01.11.2021;11:39:51;Stop          ;04.12.2018;FEY;;LION;49;14500;7200;192;3;58;60;8400;3000;3800;3801;1;12999;28.04;29.44;32,5;BCS1388054;1;7
009823;09.02.2022;08:16:46;Normalcharge  ;04.12.2018;FEY;;LION;49;14500;7200;192;3;56;57;8400;3000;3733;3735;1;13009;22.54;21.84;23,1;BCS1388054;3;4
009823;09.02.2022;12:49:54;Stop           ;04.12.2018;FEY;;LION;49;14500;7200;224;3;98;100;8400;;4158;4159;1;13005;26.14;25.94;29,9;BCS1388054;3;4

File: 009826.txt
Serialnumber ; Date ; Time ; Action ; Date of Manufacture ; Manufacturer ; Battery Name ; Device-Chemistry ; Specification-Info ; Design-Capacity [mAh] ; Design-Voltage [mV] ; Battery Status ; Cycle Count ; SOC [%] ; Relativ SOC[%] ; Desired Voltage [mV]; Desired Current [mA]; Cell Voltage 1 [mV] ; Cell Voltage 2 [mV] ; Max_Error [%] ; Busvoltage[mV] ; Battery Temperature [°C] ; Charger Temperature [°C] ; Batterysystem ; Case ; PLace
009826;02.12.2020;11:43:08;Cycle         ;03.12.2018;FEY;;LION;49;14500;7200;192;4;81;82;8400;3000;3943;3942;1;12990;26.24;28.34;28,4;BCS1388054;1;2
009826;03.12.2020;15:31:47;Stop          ;03.12.2018;FEY;;LION;49;14500;7200;224;6;97;100;8400;;4154;4154;1;12991;26.84;28.74;28,8;BCS1388054;1;2
009826;03.12.2020;17:28:02;Normalcharge  ;03.12.2018;FEY;;LION;49;14500;7200;224;6;97;100;8400;;4153;4152;1;12990;26.84;28.74;28,9;BCS1388054;1;2
009826;03.03.2021;08:17:08;Normalcharge  ;03.12.2018;FEY;;LION;49;14500;7200;192;6;95;98;8400;;4112;4112;1;13011;23.24;23.74;23,5;BCS1388054;1;3
009826;04.03.2021;07:53:50;Stop          ;03.12.2018;FEY;;LION;49;14500;7200;192;6;95;98;8400;;4112;4111;1;13004;26.24;28.74;31,6;BCS1388054;1;3
009826;04.04.2021;11:50:02;Normalcharge  ;03.12.2018;FEY;;LION;49;14500;7200;192;6;94;96;8400;;4097;4096;1;12980;25.04;24.84;27,7;BCS1388054;6;16
009826;04.04.2021;11:51:24;Stop          ;03.12.2018;FEY;;LION;49;14500;7200;192;6;94;96;8400;;4097;4096;1;12644;25.04;25.34;28,5;BCS1388054;6;16
009826;22.08.2021;11:07:50;Normalcharge  ;03.12.2018;FEY;;LION;49;14500;7200;192;6;78;80;8400;3000;3920;3920;1;12999;22.64;30.94;32,0;BCS1388054;1;6
009826;22.08.2021;11:08:23;Stop          ;03.12.2018;FEY;;LION;49;14500;7200;128;6;78;80;8400;3000;3958;3939;1;12624;22.74;31.74;32,4;BCS1388054;1;6
009826;12.10.2021;12:40:28;Normalcharge  ;03.12.2018;FEY;;LION;49;14500;7200;192;6;64;66;8400;3000;3784;3783;1;13029;24.14;26.74;28,8;BCS1388054;7;16
009826;12.10.2021;12:40:39;Stop          ;03.12.2018;FEY;;LION;49;14500;7200;192;6;64;66;8400;3000;3783;3783;1;13021;24.14;27.04;28,9;BCS1388054;7;16
009826;12.10.2021;12:43:08;Normalcharge  ;03.12.2018;FEY;;LION;49;14500;7200;192;6;64;66;8400;3000;3783;3783;1;13024;24.34;26.84;29,2;BCS1388054;7;16
009826;12.10.2021;12:43:28;Stop          ;03.12.2018;FEY;;LION;49;14500;7200;192;6;64;66;8400;3000;3784;3783;1;13019;24.34;27.44;29,2;BCS1388054;7;16
009826;14.10.2021;12:40:18;Normalcharge  ;03.12.2018;FEY;;LION;49;14500;7200;192;6;64;66;8400;3000;3783;3783;1;12993;23.94;25.74;28,1;BCS1388054;6;7
009826;14.10.2021;12:41:58;Stop          ;03.12.2018;FEY;;LION;49;14500;7200;128;6;64;66;8400;3000;3877;3831;1;12634;24.04;29.54;28,5;BCS1388054;6;7
009826;07.02.2022;08:51:46;Normalcharge  ;03.12.2018;FEY;;LION;49;14500;7200;192;6;58;59;8400;3000;3735;3735;1;13006;22.74;23.94;25,6;BCS1388054;2;10
009826;07.02.2022;13:15:56;Stop          ;03.12.2018;FEY;;LION;49;14500;7200;224;6;98;100;8400;;4158;4157;1;13001;26.14;27.64;31,1;BCS1388054;2;10
009826;14.03.2022;12:14:44;Normalcharge  ;03.12.2018;FEY;;LION;49;14500;7200;224;6;96;99;8400;;4130;4129;1;13007;24.64;26.04;27,7;BCS1388054;1;6
009826;14.03.2022;12:15:19;Stop          ;03.12.2018;FEY;;LION;49;14500;7200;224;6;96;99;8400;;4130;4129;1;13006;24.64;26.14;27,9;BCS1388054;1;6
009826;14.03.2022;12:15:29;Normalcharge  ;03.12.2018;FEY;;LION;49;14500;7200;224;6;96;99;8400;;4130;4129;1;13006;24.64;26.24;28,1;BCS1388054;1;6
009826;14.03.2022;12:16:01;Stop          ;03.12.2018;FEY;;LION;49;14500;7200;224;6;96;99;8400;;4130;4129;1;13006;24.64;26.24;28,4;BCS1388054;1;6
009826;14.03.2022;12:17:43;Normalcharge  ;03.12.2018;FEY;;LION;49;14500;7200;224;6;96;99;8400;;4130;4129;1;13004;24.64;26.54;29,2;BCS1388054;1;6
009826;14.03.2022;12:18:20;Stop          ;03.12.2018;FEY;;LION;49;14500;7200;224;6;96;99;8400;;4130;4129;1;13004;24.64;26.54;29,3;BCS1388054;1;6
009826;14.03.2022;12:19:16;Normalcharge  ;03.12.2018;FEY;;LION;49;14500;7200;224;6;96;99;8400;;4130;4129;1;13005;24.64;26.54;29,5;BCS1388054;1;6
009826;14.03.2022;12:19:20;Stop          ;03.12.2018;FEY;;LION;49;14500;7200;224;6;96;99;8400;;4130;4129;1;13005;24.64;26.54;29,6;BCS1388054;1;6
009826;29.03.2022;08:20:58;Normalcharge  ;03.12.2018;FEY;;LION;49;14500;7200;192;6;83;86;8400;3000;3986;3985;1;13011;24.94;25.34;25,7;BCS1388054;4;12
009826;29.03.2022;08:21:36;Stop          ;03.12.2018;FEY;;LION;49;14500;7200;128;6;83;86;8400;3000;4037;4010;1;12691;24.94;26.34;26,0;BCS1388054;4;12
009826;29.03.2022;08:22:11;Normalcharge  ;03.12.2018;FEY;;LION;49;14500;7200;128;6;83;86;8400;3000;3987;3989;1;13009;25.04;25.74;26,3;BCS1388054;4;12
009826;29.03.2022;08:22:29;Stop          ;03.12.2018;FEY;;LION;49;14500;7200;128;6;83;86;8400;3000;4000;3994;1;12881;25.04;26.14;26,4;BCS1388054;4;12
009826;17.05.2022;08:54:06;Normalcharge  ;03.12.2018;FEY;;LION;49;14500;7200;192;6;83;85;8400;3000;3971;3970;1;12998;28.34;31.34;30,8;BCS1388054;1;3
009826;17.05.2022;11:50:11;Stop          ;03.12.2018;FEY;;LION;49;14500;7200;224;6;98;100;8400;;4155;4154;1;12996;30.84;33.14;34,5;BCS1388054;1;3

File: 009830.txt
Serialnumber ; Date ; Time ; Action ; Date of Manufacture ; Manufacturer ; Battery Name ; Device-Chemistry ; Specification-Info ; Design-Capacity [mAh] ; Design-Voltage [mV] ; Battery Status ; Cycle Count ; SOC [%] ; Relativ SOC[%] ; Desired Voltage [mV]; Desired Current [mA]; Cell Voltage 1 [mV] ; Cell Voltage 2 [mV] ; Max_Error [%] ; Busvoltage[mV] ; Battery Temperature [°C] ; Charger Temperature [°C] ; Batterysystem ; Case ; PLace
009830;07.12.2020;04:14:21;Cycle         ;03.12.2018;FEY;;LION;49;14500;7200;224;2;97;99;8400;;4125;4125;1;12999;25.34;27.94;30,3;BCS1388054;2;1
009830;08.12.2020;16:19:44;Stop          ;03.12.2018;FEY;;LION;49;14500;7200;224;3;98;100;8400;;4152;4153;1;13001;27.34;29.54;31,9;BCS1388054;2;1
009830;03.03.2021;08:17:40;Normalcharge  ;03.12.2018;FEY;;LION;49;14500;7200;192;4;69;72;8400;3000;3863;3863;1;13006;22.74;22.84;23,6;BCS1388054;6;4
009830;03.03.2021;11:56:52;Stop          ;03.12.2018;FEY;;LION;49;14500;7200;224;4;98;100;8400;;4157;4158;1;13000;27.64;28.44;31,7;BCS1388054;6;4
009830;06.04.2021;08:38:46;Normalcharge  ;03.12.2018;FEY;;LION;49;14500;7200;224;4;96;99;8400;;4133;4133;1;12999;20.34;24.94;28,1;BCS1388054;2;13
009830;06.04.2021;08:39:36;Stop          ;03.12.2018;FEY;;LION;49;14500;7200;224;4;96;99;8400;;4132;4133;1;12998;20.44;25.24;28,2;BCS1388054;2;13
009830;08.04.2021;07:57:57;Normalcharge  ;03.12.2018;FEY;;LION;49;14500;7200;224;4;96;99;8400;;4132;4133;1;13000;24.84;25.14;26,3;BCS1388054;2;13
009830;08.04.2021;07:59:45;Stop          ;03.12.2018;FEY;;LION;49;14500;7200;224;4;96;99;8400;;4132;4132;1;12998;24.84;25.84;26,8;BCS1388054;2;13
009830;08.04.2021;10:35:00;Normalcharge  ;03.12.2018;FEY;;LION;49;14500;7200;224;4;96;99;8400;;4132;4132;1;13000;25.34;25.54;28,1;BCS1388054;2;13
009830;08.04.2021;10:36:53;Stop          ;03.12.2018;FEY;;LION;49;14500;7200;224;4;96;99;8400;;4132;4133;1;12997;25.34;26.34;28,9;BCS1388054;2;13
009830;18.04.2021;08:33:36;Normalcharge  ;03.12.2018;FEY;;LION;49;14500;7200;224;4;96;99;8400;;4128;4128;1;12997;25.74;26.44;27,7;BCS1388054;2;13
009830;18.04.2021;08:33:44;Stop          ;03.12.2018;FEY;;LION;49;14500;7200;224;4;96;99;8400;;4128;4128;1;12998;25.74;26.44;27,8;BCS1388054;2;13
009830;04.08.2021;07:24:55;Normalcharge  ;03.12.2018;FEY;;LION;49;14500;7200;192;4;93;96;8400;;4096;4096;1;12991;30.04;30.84;31,5;BCS1388054;2;13
009830;04.08.2021;07:25:47;Stop          ;03.12.2018;FEY;;LION;49;14500;7200;192;4;93;96;8400;;4095;4096;1;12989;30.04;31.04;31,9;BCS1388054;2;13
009830;22.08.2021;11:07:59;Normalcharge  ;03.12.2018;FEY;;LION;49;14500;7200;192;4;68;70;8400;3000;3846;3847;1;12998;22.14;29.44;32,1;BCS1388054;3;9
009830;22.08.2021;11:08:33;Stop           ;03.12.2018;FEY;;LION;49;14500;7200;128;4;68;70;8400;3000;3906;3873;1;12683;22.24;30.54;32,4;BCS1388054;3;9