Folder: Battery_sort_V2/reader/Batterieverzeichnis_new (part 8)

File: 009660.txt
Serialnumber ; Date ; Time ; Action ; Date of Manufacture ; Manufacturer ; Battery Name ; Device-Chemistry ; Specification-Info ; Design-Capacity [mAh] ; Design-Voltage [mV] ; Battery Status ; Cycle Count ; SOC [%] ; Relativ SOC[%] ; Desired Voltage [mV]; Desired Current [mA]; Cell Voltage 1 [mV] ; Cell Voltage 2 [mV] ; Max_Error [%] ; Busvoltage[mV] ; Battery Temperature [°C] ; Charger Temperature [°C] ; Batterysystem ; Case ; PLace
009660;07.12.2020;04:14:36;Cycle         ;03.12.2018;FEY;;LION;49;14500;7200;192;2;95;97;8400;;4115;4116;1;12990;25.44;27.74;30,3;BCS1388054;6;18
009660;08.12.2020;16:20:13;Stop          ;03.12.2018;FEY;;LION;49;14500;7200;192;2;95;97;8400;;4114;4115;1;12990;27.34;29.34;31,9;BCS1388054;6;18
009660;12.01.2021;04:17:33;Charge to 90% ;03.12.2018;FEY;;LION;49;14500;7200;192;2;94;96;8400;;4104;4104;1;13011;22.74;23.74;23,6;BCS1388054;4;12
009660;12.01.2021;04:57:16;Stop          ;03.12.2018;FEY;;LION;49;14500;7200;192;2;88;90;8400;3000;4044;4045;1;13007;27.44;27.64;31,6;BCS1388054;4;12
009660;12.01.2021;05:21:49;Cycle         ;03.12.2018;FEY;;LION;49;14500;7200;192;2;88;90;8400;3000;4046;4047;1;13008;26.94;26.64;30,4;BCS1388054;4;12
009660;13.01.2021;08:19:19;Stop          ;03.12.2018;FEY;;LION;49;14500;7200;224;4;96;100;8400;;4155;4158;1;13007;26.54;27.14;30,7;BCS1388054;4;12
009660;06.04.2021;08:38:50;Normalcharge  ;03.12.2018;FEY;;LION;49;14500;7200;192;4;94;98;8400;;4115;4117;1;13009;20.24;25.14;28,1;BCS1388054;3;10
009660;06.04.2021;08:39:42;Stop           ;03.12.2018;FEY;;LION;49;14500;7200;192;4;94;98;8400;;4115;4117;1;13007;20.34;25.34;28,2;BCS1388054;3;10
009660;08.04.2021;07:58:01;Normalcharge  ;03.12.2018;FEY;;LION;49;14500;7200;192;4;94;98;8400;;4115;4117;1;13008;24.94;25.44;26,4;BCS1388054;3;10
009660;08.04.2021;07:59:40;Stop           ;03.12.2018;FEY;;LION;49;14500;7200;192;4;94;98;8400;;4115;4117;1;13008;24.94;26.04;26,8;BCS1388054;3;10
009660;08.04.2021;10:35:05;Normalcharge  ;03.12.2018;FEY;;LION;49;14500;7200;192;4;94;98;8400;;4115;4117;1;13010;25.14;25.74;28,1;BCS1388054;3;10
009660;08.04.2021;10:36:56;Stop           ;03.12.2018;FEY;;LION;49;14500;7200;192;4;94;98;8400;;4115;4117;1;13006;25.14;26.44;29,0;BCS1388054;3;10
009660;18.04.2021;08:33:50;Normalcharge  ;03.12.2018;FEY;;LION;49;14500;7200;192;4;94;97;8400;;4112;4114;1;13008;25.84;26.74;27,8;BCS1388054;3;10
009660;18.04.2021;08:33:58;Stop           ;03.12.2018;FEY;;LION;49;14500;7200;192;4;94;97;8400;;4112;4113;1;13008;25.84;26.84;27,9;BCS1388054;3;10
009660;04.08.2021;07:24:50;Normalcharge  ;03.12.2018;FEY;;LION;49;14500;7200;192;4;93;96;8400;;4083;4085;1;13002;30.04;31.04;31,6;BCS1388054;3;10
009660;04.08.2021;07:25:37;Stop           ;03.12.2018;FEY;;LION;49;14500;7200;192;4;93;96;8400;;4084;4085;1;13000;30.04;31.34;31,7;BCS1388054;3;10
009660;22.08.2021;11:08:05;Normalcharge  ;03.12.2018;FEY;;LION;49;14500;7200;192;4;67;70;8400;3000;3850;3851;1;13004;22.34;29.24;32,1;BCS1388054;4;13
009660;22.08.2021;11:08:38;Stop          ;03.12.2018;FEY;;LION;49;14500;7200;128;4;67;70;8400;3000;3890;3870;1;12678;22.44;30.54;32,5;BCS1388054;4;13
009660;01.11.2021;10:18:15;Normalcharge  ;03.12.2018;FEY;;LION;49;14500;7200;2768;5;;;8400;3000;3093;3125;1;13003;23.44;26.24;28,2;BCS1388054;3;2
009660;01.11.2021;10:18:55;Stop           ;03.12.2018;FEY;;LION;49;14500;7200;144;5;;;8400;3000;3196;3199;1;12626;23.44;27.64;28,2;BCS1388054;3;2
009660;01.11.2021;10:27:50;Normalcharge  ;03.12.2018;FEY;;LION;49;14500;7200;720;5;;;8400;3000;3096;3128;1;13003;23.94;26.44;27,8;BCS1388054;3;2
009660;01.11.2021;10:29:05;Stop           ;03.12.2018;FEY;;LION;49;14500;7200;144;5;;;8400;3000;3274;3253;1;12586;24.04;29.54;28,5;BCS1388054;3;2
009660;01.11.2021;10:32:24;Ladung auf 60% ;03.12.2018;FEY;;LION;49;14500;7200;720;5;;;8400;3000;3123;3152;1;12997;24.24;27.54;29,7;BCS1388054;3;2
009660;01.11.2021;15:19:46;Stop           ;03.12.2018;FEY;;LION;49;14500;7200;192;5;54;60;8400;3000;3800;3801;1;12998;30.34;30.24;32,7;BCS1388054;3;2
009660;07.02.2022;08:50:57;Normalcharge  ;03.12.2018;FEY;;LION;49;14500;7200;192;5;56;59;8400;3000;3732;3733;1;13022;21.94;23.14;25,1;BCS1388054;4;16
009660;07.02.2022;13:19:09;Stop          ;03.12.2018;FEY;;LION;49;14500;7200;224;5;95;100;8400;;4157;4158;1;13016;26.54;27.74;29,7;BCS1388054;4;16
009660;14.03.2022;12:14:39;Normalcharge  ;03.12.2018;FEY;;LION;49;14500;7200;224;5;93;99;8400;;4128;4129;1;13005;24.14;26.44;27,7;BCS1388054;2;3
009660;14.03.2022;12:15:13;Stop          ;03.12.2018;FEY;;LION;49;14500;7200;224;5;93;99;8400;;4128;4129;1;13004;24.04;26.74;27,9;BCS1388054;2;3
009660;14.03.2022;12:17:51;Normalcharge  ;03.12.2018;FEY;;LION;49;14500;7200;224;5;93;99;8400;;4128;4129;1;13002;24.14;27.34;29,2;BCS1388054;2;3
009660;14.03.2022;12:18:32;Stop          ;03.12.2018;FEY;;LION;49;14500;7200;224;5;93;99;8400;;4128;4129;1;13002;24.14;27.34;29,5;BCS1388054;2;3
009660;14.03.2022;12:19:02;Normalcharge  ;03.12.2018;FEY;;LION;49;14500;7200;224;5;93;99;8400;;4128;4129;1;13002;24.14;27.34;29,5;BCS1388054;2;3
009660;14.03.2022;12:19:06;Stop          ;03.12.2018;FEY;;LION;49;14500;7200;224;5;93;99;8400;;4128;4129;1;13003;24.14;27.44;29,6;BCS1388054;2;3

File: 009661.txt
Serialnumber ; Date ; Time ; Action ; Date of Manufacture ; Manufacturer ; Battery Name ; Device-Chemistry ; Specification-Info ; Design-Capacity [mAh] ; Design-Voltage [mV] ; Battery Status ; Cycle Count ; SOC [%] ; Relativ SOC[%] ; Desired Voltage [mV]; Desired Current [mA]; Cell Voltage 1 [mV] ; Cell Voltage 2 [mV] ; Max_Error [%] ; Busvoltage[mV] ; Battery Temperature [°C] ; Charger Temperature [°C] ; Batterysystem ; Case ; PLace
009661;07.12.2020;04:14:21;Cycle         ;03.12.2018;FEY;;LION;49;14500;7200;224;3;97;99;8400;;4137;4136;1;13009;24.94;27.54;30,3;BCS1388054;2;9
009661;08.12.2020;16:19:44;Stop          ;03.12.2018;FEY;;LION;49;14500;7200;224;4;98;100;8400;;4153;4153;1;13009;27.14;29.14;31,9;BCS1388054;2;9
009661;03.03.2021;08:17:08;Normalcharge  ;03.12.2018;FEY;;LION;49;14500;7200;192;4;95;98;8400;;4117;4117;1;12998;22.44;23.04;23,5;BCS1388054;1;5
009661;04.03.2021;07:53:50;Stop          ;03.12.2018;FEY;;LION;49;14500;7200;192;4;95;98;8400;;4116;4116;1;12992;25.34;26.64;31,6;BCS1388054;1;5
009661;04.04.2021;11:50:10;Normalcharge  ;03.12.2018;FEY;;LION;49;14500;7200;192;4;51;52;8400;3000;3674;3673;1;13018;24.24;25.94;27,8;BCS1388054;5;9
009661;04.04.2021;11:51:30;Stop          ;03.12.2018;FEY;;LION;49;14500;7200;128;4;51;53;8400;3000;3762;3712;1;12679;24.24;28.84;28,5;BCS1388054;5;9
009661;05.04.2021;09:38:11;Charge to 60% ;03.12.2018;FEY;;LION;49;14500;7200;192;4;51;53;8400;3000;3675;3675;1;12992;24.34;25.64;26,3;BCS1388054;4;11
009661;05.04.2021;10:13:52;Stop          ;03.12.2018;FEY;;LION;49;14500;7200;192;4;58;60;8400;3000;3757;3759;1;12989;27.14;28.54;32,1;BCS1388054;4;11
009661;22.08.2021;11:37:30;Normalcharge  ;03.12.2018;FEY;;LION;49;14500;7200;192;4;54;56;8400;3000;3700;3700;1;13008;20.54;28.24;31,9;BCS1388054;3;15
009661;22.08.2021;11:38:19;Stop           ;03.12.2018;FEY;;LION;49;14500;7200;128;4;54;56;8400;3000;3787;3741;1;12566;20.74;30.54;32,1;BCS1388054;3;15
009661;25.08.2021;08:15:15;Ladung auf 60% ;03.12.2018;FEY;;LION;49;14500;7200;192;4;54;56;8400;3000;3701;3702;1;13002;29.74;31.94;33,4;BCS1388054;3;15
009661;25.08.2021;08:40:44;Stop           ;03.12.2018;FEY;;LION;49;14500;7200;192;4;58;60;8400;3000;3755;3756;1;13001;31.54;35.44;36,1;BCS1388054;3;15
009661;01.11.2021;09:51:56;Normalcharge  ;03.12.2018;FEY;;LION;49;14500;7200;192;4;56;57;8400;3000;3719;3719;1;12994;25.14;26.44;26,3;BCS1388054;6;18
009661;01.11.2021;09:53:46;Stop          ;03.12.2018;FEY;;LION;49;14500;7200;128;4;56;58;8400;3000;3814;3767;1;12602;25.24;30.94;27,3;BCS1388054;6;18
009661;01.11.2021;10:02:24;Normalcharge  ;03.12.2018;FEY;;LION;49;14500;7200;192;4;56;58;8400;3000;3724;3725;1;12988;25.44;28.04;29,5;BCS1388054;6;18
009661;01.11.2021;10:03:07;Stop          ;03.12.2018;FEY;;LION;49;14500;7200;128;4;56;58;8400;3000;3810;3762;1;12597;25.44;30.04;29,3;BCS1388054;6;18
009661;01.11.2021;10:27:30;Normalcharge  ;03.12.2018;FEY;;LION;49;14500;7200;192;4;56;58;8400;3000;3725;3726;1;12990;25.64;27.14;27,8;BCS1388054;6;18
009661;01.11.2021;10:29:18;Stop          ;03.12.2018;FEY;;LION;49;14500;7200;128;4;56;58;8400;3000;3819;3772;1;12591;25.74;31.54;28,6;BCS1388054;6;18
009661;01.11.2021;10:32:43;Charge to 60% ;03.12.2018;FEY;;LION;49;14500;7200;192;4;57;58;8400;3000;3731;3731;1;12989;25.84;25.54;29,7;BCS1388054;6;18
009661;01.11.2021;14:25:59;Stop          ;03.12.2018;FEY;;LION;49;14500;7200;192;4;58;60;8400;3000;3751;3752;1;12989;27.44;29.84;32,6;BCS1388054;6;18
009661;09.02.2022;08:17:09;Normalcharge  ;03.12.2018;FEY;;LION;49;14500;7200;192;4;56;57;8400;3000;3713;3714;1;13010;21.94;22.94;23,3;BCS1388054;5;3
009661;09.02.2022;13:56:40;Stop          ;03.12.2018;FEY;;LION;49;14500;7200;224;4;98;100;8400;;4154;4154;1;13002;23.94;26.14;29,9;BCS1388054;5;3
009661;14.03.2022;10:34:44;Normalcharge  ;03.12.2018;FEY;;LION;49;14500;7200;224;4;96;99;8400;;4130;4130;1;13013;23.64;25.04;26,0;BCS1388054;1;16
009661;14.03.2022;10:38:55;Stop          ;03.12.2018;FEY;;LION;49;14500;7200;224;4;96;99;8400;;4130;4130;1;12970;23.74;25.94;28,2;BCS1388054;1;16

File: 009662.txt
Serialnumber ; Date ; Time ; Action ; Date of Manufacture ; Manufacturer ; Battery Name ; Device-Chemistry ; Specification-Info ; Design-Capacity [mAh] ; Design-Voltage [mV] ; Battery Status ; Cycle Count ; SOC [%] ; Relativ SOC[%] ; Desired Voltage [mV]; Desired Current [mA]; Cell Voltage 1 [mV] ; Cell Voltage 2 [mV] ; Max_Error [%] ; Busvoltage[mV] ; Battery Temperature [°C] ; Charger Temperature [°C] ; Batterysystem ; Case ; PLace
009662;30.11.2020;09:42:55;Stop          ;03.12.2018;FEY;;LION;49;14500;7200;224;3;98;100;8400;;4155;4154;1;13006;27.14;28.74;31,7;BCS1388054;7;9
009662;07.02.2021;08:46:54;Normalcharge  ;03.12.2018;FEY;;LION;49;14500;7200;192;3;92;94;8400;3000;4078;4078;1;13004;23.04;24.94;29,2;BCS1388054;3;18
009662;07.02.2021;11:52:16;Stop           ;03.12.2018;FEY;;LION;49;14500;7200;224;3;98;100;8400;;4151;4150;1;13004;25.24;26.64;29,7;BCS1388054;3;18
009662;03.03.2021;08:17:29;Normalcharge  ;03.12.2018;FEY;;LION;49;14500;7200;192;3;84;87;8400;3000;3995;3994;1;13007;22.54;23.14;23,5;BCS1388054;4;13
009662;03.03.2021;10:32:46;Stop          ;03.12.2018;FEY;;LION;49;14500;7200;224;3;98;100;8400;;4158;4157;1;13001;28.04;29.64;32,0;BCS1388054;4;13
009662;04.04.2021;11:50:02;Normalcharge  ;03.12.2018;FEY;;LION;49;14500;7200;192;4;53;55;8400;3000;3693;3693;1;13003;24.34;25.24;27,7;BCS1388054;6;4
009662;04.04.2021;11:51:24;Stop          ;03.12.2018;FEY;;LION;49;14500;7200;128;4;53;55;8400;3000;3783;3733;1;12679;24.34;28.54;28,5;BCS1388054;6;4
009662;05.04.2021;09:37:46;Charge to 60% ;03.12.2018;FEY;;LION;49;14500;7200;192;4;53;55;8400;3000;3695;3695;1;12990;24.44;26.24;26,1;BCS1388054;2;18
009662;05.04.2021;10:03:48;Stop          ;03.12.2018;FEY;;LION;49;14500;7200;192;4;58;60;8400;3000;3764;3762;1;12986;26.64;31.04;31,4;BCS1388054;2;18
009662;04.08.2021;07:25:01;Normalcharge  ;03.12.2018;FEY;;LION;49;14500;7200;192;4;54;56;8400;3000;3700;3700;1;13008;21.14;30.44;31,5;BCS1388054;1;16
009662;04.08.2021;07:25:57;Stop          ;03.12.2018;FEY;;LION;49;14500;7200;128;4;54;56;8400;3000;3792;3742;1;12789;21.34;32.44;31,9;BCS1388054;1;16
009662;25.08.2021;08:15:19;Charge to 60% ;03.12.2018;FEY;;LION;49;14500;7200;192;4;54;56;8400;3000;3699;3698;1;12988;29.84;31.14;33,5;BCS1388054;2;11
009662;25.08.2021;10:43:16;Stop          ;03.12.2018;FEY;;LION;49;14500;7200;192;4;58;60;8400;3000;3749;3747;1;12988;32.24;33.24;36,4;BCS1388054;2;11
009662;01.11.2021;09:51:48;Normalcharge  ;03.12.2018;FEY;;LION;49;14500;7200;192;4;56;57;8400;3000;3717;3717;1;13026;25.34;26.44;26,3;BCS1388054;7;10
009662;01.11.2021;09:53:51;Stop          ;03.12.2018;FEY;;LION;49;14500;7200;128;4;56;58;8400;3000;3812;3764;1;12659;25.44;30.54;27,4;BCS1388054;7;10
009662;01.11.2021;10:02:29;Normalcharge  ;03.12.2018;FEY;;LION;49;14500;7200;192;4;56;58;8400;3000;3722;3722;1;13021;25.54;28.04;29,5;BCS1388054;7;10
009662;01.11.2021;10:03:04;Stop          ;03.12.2018;FEY;;LION;49;14500;7200;128;4;56;58;8400;3000;3781;3748;1;12696;25.54;29.24;29,3;BCS1388054;7;10
009662;01.11.2021;10:27:23;Normalcharge  ;03.12.2018;FEY;;LION;49;14500;7200;192;4;56;58;8400;3000;3723;3722;1;13023;25.74;27.24;27,7;BCS1388054;7;10
009662;01.11.2021;10:29:22;Stop          ;03.12.2018;FEY;;LION;49;14500;7200;128;4;56;58;8400;3000;3818;3769;1;12659;25.84;31.24;28,6;BCS1388054;7;10
009662;01.11.2021;10:32:51;Charge to 60% ;03.12.2018;FEY;;LION;49;14500;7200;192;4;56;58;8400;3000;3729;3727;1;13022;25.84;28.84;29,7;BCS1388054;7;10
009662;01.11.2021;11:46:27;Stop          ;03.12.2018;FEY;;LION;49;14500;7200;192;4;58;60;8400;3000;3751;3749;1;13021;27.24;29.24;32,5;BCS1388054;7;10
009662;09.02.2022;08:17:05;Normalcharge  ;03.12.2018;FEY;;LION;49;14500;7200;192;4;56;57;8400;3000;3711;3710;1;13008;22.04;22.44;23,1;BCS1388054;4;6
009662;09.02.2022;13:58:16;Stop          ;03.12.2018;FEY;;LION;49;14500;7200;224;4;98;100;8400;;4154;4154;1;13002;24.24;24.74;30,0;BCS1388054;4;6
009662;13.03.2022;12:10:09;Normalcharge  ;03.12.2018;FEY;;LION;49;14500;7200;192;5;63;65;8400;3000;3798;3797;1;13009;23.64;24.04;25,6;BCS1388054;3;5
009662;13.03.2022;12:10:50;Stop           ;03.12.2018;FEY;;LION;49;14500;7200;128;5;63;65;8400;3000;3823;3810;1;12736;23.64;25.44;25,7;BCS1388054;3;5
009662;14.03.2022;10:33:26;Normalcharge  ;03.12.2018;FEY;;LION;49;14500;7200;192;5;63;65;8400;3000;3798;3798;1;13038;23.64;23.94;25,0;BCS1388054;7;14
009662;14.03.2022;10:37:46;Normalcharge  ;03.12.2018;FEY;;LION;49;14500;7200;128;5;64;66;8400;3000;3905;3857;1;12745;23.84;31.04;27,9;BCS1388054;7;14
009662;14.03.2022;10:37:57;Stop          ;03.12.2018;FEY;;LION;49;14500;7200;128;5;64;66;8400;3000;3906;3856;1;12748;23.84;31.24;27,9;BCS1388054;7;14
009662;17.05.2022;08:54:20;Normalcharge  ;03.12.2018;FEY;;LION;49;14500;7200;192;5;63;65;8400;3000;3782;3778;1;12999;27.84;29.54;30,8;BCS1388054;4;6
009662;17.05.2022;13:04:14;Stop          ;03.12.2018;FEY;;LION;49;14500;7200;224;5;97;100;8400;;4162;4162;1;12997;31.44;32.44;34,0;BCS1388054;4;6

File: 009666.txt
Serialnumber ; Date ; Time ; Action ; Date of Manufacture ; Manufacturer ; Battery Name ; Device-Chemistry ; Specification-Info ; Design-Capacity [mAh] ; Design-Voltage [mV] ; Battery Status ; Cycle Count ; SOC [%] ; Relativ SOC[%] ; Desired Voltage [mV]; Desired Current [mA]; Cell Voltage 1 [mV] ; Cell Voltage 2 [mV] ; Max_Error [%] ; Busvoltage[mV] ; Battery Temperature [°C] ; Charger Temperature [°C] ; Batterysystem ; Case ; PLace
009666;07.12.2020;04:14:32;Cycle         ;03.12.2018;FEY;;LION;49;14500;7200;16576;3;97;98;;;4150;4150;1;13002;25.94;26.54;30,3;BCS1388054;5;6
009666;08.12.2020;16:20:01;Stop          ;03.12.2018;FEY;;LION;49;14500;7200;16576;3;97;98;;;4148;4148;1;12998;27.84;27.74;31,7;BCS1388054;5;6
009666;12.01.2021;04:17:33;Charge to 90% ;03.12.2018;FEY;;LION;49;14500;7200;16576;3;96;97;;;4132;4132;1;13009;23.24;22.74;23,6;BCS1388054;4;9
009666;12.01.2021;04:57:16;Stop          ;03.12.2018;FEY;;LION;49;14500;7200;192;3;90;90;8400;3000;4061;4061;1;13003;26.94;28.24;31,6;BCS1388054;4;9
009666;12.01.2021;05:21:49;Cycle         ;03.12.2018;FEY;;LION;49;14500;7200;192;3;90;90;8400;3000;4065;4066;1;13004;27.14;27.04;30,4;BCS1388054;4;9
009666;13.01.2021;08:19:19;Stop          ;03.12.2018;FEY;;LION;49;14500;7200;224;4;98;100;8400;;4156;4156;1;13005;27.54;27.04;30,7;BCS1388054;4;9
009666;21.02.2021;13:44:56;Normalcharge  ;03.12.2018;FEY;;LION;49;14500;7200;192;5;56;57;8400;3000;3717;3719;1;13017;22.94;22.94;27,7;BCS1388054;5;8
009666;21.02.2021;19:31:36;Stop          ;03.12.2018;FEY;;LION;49;14500;7200;224;5;98;100;8400;;4156;4155;1;13011;27.64;28.24;30,6;BCS1388054;5;8
009666;06.04.2021;08:39:03;Normalcharge  ;03.12.2018;FEY;;LION;49;14500;7200;224;5;96;99;8400;;4129;4128;1;13020;21.04;24.34;28,1;BCS1388054;4;18
009666;06.04.2021;08:39:53;Stop          ;03.12.2018;FEY;;LION;49;14500;7200;224;5;96;99;8400;;4129;4128;1;13017;21.14;24.34;28,4;BCS1388054;4;18
009666;08.04.2021;07:58:12;Normalcharge  ;03.12.2018;FEY;;LION;49;14500;7200;224;5;96;99;8400;;4129;4128;1;13019;25.44;20.34;26,3;BCS1388054;4;18
009666;08.04.2021;07:59:34;Stop          ;03.12.2018;FEY;;LION;49;14500;7200;224;5;96;99;8400;;4128;4128;1;13000;25.44;24.94;26,7;BCS1388054;4;18
009666;08.04.2021;10:36:07;Normalcharge  ;03.12.2018;FEY;;LION;49;14500;7200;224;5;96;99;8400;;4128;4127;1;13017;25.54;25.14;28,5;BCS1388054;4;18
009666;08.04.2021;10:37:03;Stop          ;03.12.2018;FEY;;LION;49;14500;7200;224;5;96;99;8400;;4128;4128;1;12995;25.54;25.34;29,0;BCS1388054;4;18
009666;18.04.2021;08:34:04;Normalcharge  ;03.12.2018;FEY;;LION;49;14500;7200;192;5;96;98;8400;;4125;4124;1;13018;26.34;25.84;27,9;BCS1388054;4;18
009666;18.04.2021;08:34:10;Stop          ;03.12.2018;FEY;;LION;49;14500;7200;192;5;96;98;8400;;4125;4124;1;13017;26.34;25.84;28,1;BCS1388054;4;18
009666;04.08.2021;07:24:46;Normalcharge  ;03.12.2018;FEY;;LION;49;14500;7200;192;5;94;96;8400;;4093;4092;1;13013;30.44;29.94;31,5;BCS1388054;4;18
009666;04.08.2021;07:25:30;Stop          ;03.12.2018;FEY;;LION;49;14500;7200;192;5;94;96;8400;;4093;4092;1;12990;30.44;30.14;31,7;BCS1388054;4;18
009666;22.08.2021;11:08:08;Normalcharge  ;03.12.2018;FEY;;LION;49;14500;7200;192;5;70;71;8400;3000;3864;3864;1;13006;23.54;29.24;32,1;BCS1388054;5;11
009666;22.08.2021;11:08:41;Stop          ;03.12.2018;FEY;;LION;49;14500;7200;128;5;70;71;8400;3000;3876;3871;1;12857;23.64;30.24;32,5;BCS1388054;5;11
009666;12.10.2021;12:40:28;Normalcharge  ;03.12.2018;FEY;;LION;49;14500;7200;192;5;70;71;8400;3000;3854;3854;1;13015;24.14;27.94;28,8;BCS1388054;7;10
009666;12.10.2021;12:40:39;Stop          ;03.12.2018;FEY;;LION;49;14500;7200;192;5;70;71;8400;3000;3854;3854;1;13010;24.14;28.14;28,9;BCS1388054;7;10
009666;12.10.2021;12:43:08;Normalcharge  ;03.12.2018;FEY;;LION;49;14500;7200;192;5;70;71;8400;3000;3854;3854;1;13022;24.34;28.04;29,2;BCS1388054;7;10
009666;12.10.2021;12:43:28;Stop          ;03.12.2018;FEY;;LION;49;14500;7200;192;5;70;71;8400;3000;3854;3854;1;13016;24.34;28.74;29,2;BCS1388054;7;10
009666;14.10.2021;12:40:08;Normalcharge  ;03.12.2018;FEY;;LION;49;14500;7200;192;5;70;71;8400;3000;3854;3854;1;13014;24.04;25.54;27,9;BCS1388054;4;18
009666;14.10.2021;12:41:44;Stop          ;03.12.2018;FEY;;LION;49;14500;7200;128;5;70;72;8400;3000;3948;3902;1;12661;24.24;29.24;28,4;BCS1388054;4;18

File: 009683.txt
Serialnumber ; Date ; Time ; Action ; Date of Manufacture ; Manufacturer ; Battery Name ; Device-Chemistry ; Specification-Info ; Design-Capacity [mAh] ; Design-Voltage [mV] ; Battery Status ; Cycle Count ; SOC [%] ; Relativ SOC[%] ; Desired Voltage [mV]; Desired Current [mA]; Cell Voltage 1 [mV] ; Cell Voltage 2 [mV] ; Max_Error [%] ; Busvoltage[mV] ; Battery Temperature [°C] ; Charger Temperature [°C] ; Batterysystem ; Case ; PLace
009683;07.12.2020;04:14:21;Cycle         ;04.12.2018;FEY;;LION;49;14500;7200;224;3;100;99;8400;;4144;4146;1;12992;25.74;27.34;30,3;BCS1388054;2;13
009683;08.12.2020;16:19:44;Stop          ;04.12.2018;FEY;;LION;49;14500;7200;224;4;98;100;8400;;4151;4153;1;12991;27.84;29.14;31,9;BCS1388054;2;13
009683;03.03.2021;08:17:40;Normalcharge  ;04.12.2018;FEY;;LION;49;14500;7200;192;5;69;70;8400;3000;3853;3854;1;13020;23.24;24.14;23,6;BCS1388054;6;15
009683;03.03.2021;11:56:52;Stop          ;04.12.2018;FEY;;LION;49;14500;7200;224;5;99;100;8400;;4158;4161;1;13012;28.94;30.34;31,7;BCS1388054;6;15
009683;04.04.2021;11:50:28;Normalcharge  ;04.12.2018;FEY;;LION;49;14500;7200;224;5;97;99;8400;;4127;4130;1;13018;25.04;25.84;27,9;BCS1388054;3;14
009683;04.04.2021;11:51:43;Stop           ;04.12.2018;FEY;;LION;49;14500;7200;224;5;97;99;8400;;4128;4130;1;12802;25.14;26.14;28,6;BCS1388054;3;14
009683;22.08.2021;11:37:25;Normalcharge  ;04.12.2018;FEY;;LION;49;14500;7200;192;6;28;30;8400;3000;3560;3561;1;12999;21.64;28.84;31,9;BCS1388054;4;6
009683;22.08.2021;11:38:13;Stop          ;04.12.2018;FEY;;LION;49;14500;7200;128;6;28;30;8400;3000;3636;3597;1;12628;21.74;30.64;32,1;BCS1388054;4;6
009683;25.08.2021;08:15:08;Charge to 60% ;04.12.2018;FEY;;LION;49;14500;7200;192;6;28;30;8400;3000;3562;3564;1;12996;30.54;31.34;33,4;BCS1388054;4;6
009683;25.08.2021;12:59:17;Stop          ;04.12.2018;FEY;;LION;49;14500;7200;192;6;56;60;8400;3000;3752;3753;1;12994;32.74;33.34;36,6;BCS1388054;4;6
009683;01.11.2021;09:52:15;Normalcharge  ;04.12.2018;FEY;;LION;49;14500;7200;192;6;51;55;8400;3000;3715;3716;1;12988;25.94;26.54;26,3;BCS1388054;2;18
009683;01.11.2021;09:53:18;Stop          ;04.12.2018;FEY;;LION;49;14500;7200;128;6;51;55;8400;3000;3802;3758;1;12478;25.94;29.44;26,8;BCS1388054;2;18
009683;01.11.2021;10:02:05;Normalcharge  ;04.12.2018;FEY;;LION;49;14500;7200;192;6;51;55;8400;3000;3717;3719;1;12981;26.14;27.84;29,5;BCS1388054;2;18
009683;01.11.2021;10:03:24;Stop          ;04.12.2018;FEY;;LION;49;14500;7200;128;6;52;55;8400;3000;3809;3764;1;12474;26.24;31.14;29,3;BCS1388054;2;18
009683;01.11.2021;10:18:11;Normalcharge  ;04.12.2018;FEY;;LION;49;14500;7200;192;6;52;55;8400;3000;3721;3723;1;12983;26.34;27.54;28,4;BCS1388054;2;18
009683;01.11.2021;10:18:48;Stop          ;04.12.2018;FEY;;LION;49;14500;7200;128;6;52;55;8400;3000;3783;3750;1;12559;26.44;29.14;28,2;BCS1388054;2;18
009683;01.11.2021;10:28:53;Normalcharge  ;04.12.2018;FEY;;LION;49;14500;7200;192;6;52;55;8400;3000;3722;3723;1;12981;26.44;27.64;28,2;BCS1388054;2;18
009683;01.11.2021;10:29:00;Stop          ;04.12.2018;FEY;;LION;49;14500;7200;192;6;52;55;8400;3000;3722;3723;1;12969;26.44;27.74;28,4;BCS1388054;2;18
009683;01.11.2021;10:32:00;Charge to 60% ;04.12.2018;FEY;;LION;49;14500;7200;192;6;52;55;8400;3000;3722;3724;1;12982;26.44;23.84;29,7;BCS1388054;2;18
009683;01.11.2021;11:53:40;Stop          ;04.12.2018;FEY;;LION;49;14500;7200;192;6;56;60;8400;3000;3792;3795;1;12982;28.34;30.14;32,5;BCS1388054;2;18
009683;09.02.2022;08:16:46;Normalcharge  ;04.12.2018;FEY;;LION;49;14500;7200;192;6;54;57;8400;3000;3729;3731;1;13006;22.54;22.44;23,1;BCS1388054;3;9
009683;09.02.2022;12:49:54;Stop           ;04.12.2018;FEY;;LION;49;14500;7200;224;6;94;100;8400;;4159;4161;1;13003;26.54;26.64;29,9;BCS1388054;3;9