Folder: Battery_sort_V2/reader/Batterieverzeichnis (part 12)

File: 009800.txt
Serialnumber ; Date ; Time ; Action ; Date of Manufacture ; Manufacturer ; Battery Name ; Device-Chemistry ; Specification-Info ; Design-Capacity [mAh] ; Design-Voltage [mV] ; Battery Status ; Cycle Count ; SOC [%] ; Relativ SOC[%] ; Desired Voltage [mV]; Desired Current [mA]; Cell Voltage 1 [mV] ; Cell Voltage 2 [mV] ; Max_Error [%] ; Busvoltage[mV] ; Battery Temperature [°C] ; Charger Temperature [°C] ; Batterysystem ; Case ; PLace
009800;12.01.2021;04:17:28;Ladung auf 90% ;03.12.2018;FEY;;LION;49;14500;7200;224;4;97;99;8400;;4129;4131;1;13009;23.24;23.44;23,6;BCS1388054;3;9
009800;12.01.2021;04:57:30;Stop           ;03.12.2018;FEY;;LION;49;14500;7200;192;4;89;90;8400;3000;4035;4036;1;13006;27.14;31.64;31,5;BCS1388054;3;9
009800;12.01.2021;05:21:45;Cycle          ;03.12.2018;FEY;;LION;49;14500;7200;192;4;89;90;8400;3000;4048;4051;1;13006;27.24;28.14;30,4;BCS1388054;3;9
009800;13.01.2021;08:23:25;Stop           ;03.12.2018;FEY;;LION;49;14500;7200;224;5;98;100;8400;;4156;4157;1;13004;27.44;28.14;31,4;BCS1388054;3;9
009800;21.02.2021;13:43:19;Normalcharge  ;03.12.2018;FEY;;LION;49;14500;7200;192;5;78;79;8400;3000;3935;3935;1;13003;23.74;26.54;27,5;BCS1388054;1;3
009800;22.02.2021;17:08:49;Stop          ;03.12.2018;FEY;;LION;49;14500;7200;224;5;98;100;8400;;4148;4149;1;13004;26.24;28.24;30,0;BCS1388054;1;3
009800;06.04.2021;08:39:16;Normalcharge  ;03.12.2018;FEY;;LION;49;14500;7200;224;5;97;99;8400;;4128;4129;1;13002;21.54;24.44;28,1;BCS1388054;6;12
009800;06.04.2021;08:40:03;Stop          ;03.12.2018;FEY;;LION;49;14500;7200;224;5;97;99;8400;;4128;4129;1;12981;21.64;24.54;28,5;BCS1388054;6;12
009800;08.04.2021;07:58:44;Normalcharge  ;03.12.2018;FEY;;LION;49;14500;7200;224;5;96;99;8400;;4128;4129;1;13008;25.34;24.24;26,4;BCS1388054;6;12
009800;08.04.2021;07:59:23;Stop          ;03.12.2018;FEY;;LION;49;14500;7200;224;5;96;99;8400;;4128;4128;1;13006;25.34;24.84;26,7;BCS1388054;6;12
009800;08.04.2021;10:36:16;Normalcharge  ;03.12.2018;FEY;;LION;49;14500;7200;224;5;96;99;8400;;4128;4128;1;13005;25.54;25.34;28,6;BCS1388054;6;12
009800;08.04.2021;10:37:11;Stop          ;03.12.2018;FEY;;LION;49;14500;7200;224;5;96;99;8400;;4128;4128;1;12983;25.54;25.54;29,2;BCS1388054;6;12
009800;18.04.2021;08:34:33;Normalcharge  ;03.12.2018;FEY;;LION;49;14500;7200;224;5;96;99;8400;;4124;4125;1;13003;26.24;26.14;28,2;BCS1388054;6;12
009800;18.04.2021;08:34:41;Stop          ;03.12.2018;FEY;;LION;49;14500;7200;224;5;96;99;8400;;4125;4125;1;13003;26.24;26.04;28,2;BCS1388054;6;12
009800;04.08.2021;07:24:35;Normalcharge  ;03.12.2018;FEY;;LION;49;14500;7200;192;5;94;96;8400;;4094;4094;1;13000;30.24;29.94;31,5;BCS1388054;6;12
009800;04.08.2021;07:25:17;Stop          ;03.12.2018;FEY;;LION;49;14500;7200;192;5;94;96;8400;;4094;4094;1;12985;30.24;30.14;31,6;BCS1388054;6;12
009800;22.08.2021;11:37:21;Normalcharge  ;03.12.2018;FEY;;LION;49;14500;7200;192;5;88;91;8400;3000;4044;4044;1;13008;21.64;28.44;31,9;BCS1388054;5;16
009800;22.08.2021;11:38:04;Stop          ;03.12.2018;FEY;;LION;49;14500;7200;128;5;88;91;8400;3000;4110;4079;1;12758;21.74;29.84;32,0;BCS1388054;5;16
009800;14.10.2021;12:40:21;Normalcharge  ;03.12.2018;FEY;;LION;49;14500;7200;192;5;85;87;8400;3000;3988;3988;1;13027;23.74;26.14;28,1;BCS1388054;7;4
009800;14.10.2021;12:42:05;Stop          ;03.12.2018;FEY;;LION;49;14500;7200;128;5;85;87;8400;3000;4090;4045;1;12736;23.94;30.14;28,5;BCS1388054;7;4
009800;14.03.2022;10:34:06;Normalcharge  ;03.12.2018;FEY;;LION;49;14500;7200;192;6;40;42;8400;3000;3603;3603;1;13008;24.24;24.94;25,4;BCS1388054;3;10
009800;14.03.2022;10:38:27;Stop           ;03.12.2018;FEY;;LION;49;14500;7200;128;6;41;42;8400;3000;3701;3652;1;12625;24.54;30.54;28,1;BCS1388054;3;10

File: 009802.txt
Serialnumber ; Date ; Time ; Action ; Date of Manufacture ; Manufacturer ; Battery Name ; Device-Chemistry ; Specification-Info ; Design-Capacity [mAh] ; Design-Voltage [mV] ; Battery Status ; Cycle Count ; SOC [%] ; Relativ SOC[%] ; Desired Voltage [mV]; Desired Current [mA]; Cell Voltage 1 [mV] ; Cell Voltage 2 [mV] ; Max_Error [%] ; Busvoltage[mV] ; Battery Temperature [°C] ; Charger Temperature [°C] ; Batterysystem ; Case ; PLace
009802;07.02.2021;08:46:48;Normalcharge  ;03.12.2018;FEY;;LION;49;14500;7200;192;3;96;97;8400;;4114;4115;1;13003;23.04;26.84;29,2;BCS1388054;2;3
009802;07.02.2021;11:52:12;Stop          ;03.12.2018;FEY;;LION;49;14500;7200;192;3;96;97;8400;;4114;4115;1;13005;25.24;28.24;29,7;BCS1388054;2;3
009802;03.03.2021;08:17:46;Normalcharge  ;03.12.2018;FEY;;LION;49;14500;7200;2768;4;;;8400;3000;3037;3061;1;13030;22.54;23.14;23,6;BCS1388054;7;18
009802;03.03.2021;10:54:05;Stop          ;03.12.2018;FEY;;LION;49;14500;7200;128;4;30;32;8400;3000;3677;3627;1;12690;28.74;36.34;31,4;BCS1388054;7;18
009802;09.03.2021;08:06:57;Normalcharge  ;03.12.2018;FEY;;LION;49;14500;7200;192;4;34;35;8400;3000;3582;3583;1;12997;22.64;23.44;23,9;BCS1388054;1;1
009802;09.03.2021;08:07:09;Stop          ;03.12.2018;FEY;;LION;49;14500;7200;192;4;34;35;8400;3000;3582;3583;1;12998;22.64;23.54;24,1;BCS1388054;1;1
009802;06.04.2021;08:39:21;Normalcharge  ;03.12.2018;FEY;;LION;49;14500;7200;192;4;75;77;8400;3000;3897;3897;1;13022;20.44;25.34;28,1;BCS1388054;7;10
009802;06.04.2021;08:40:08;Stop          ;03.12.2018;FEY;;LION;49;14500;7200;128;4;75;77;8400;3000;3962;3928;1;12936;20.54;27.14;28,5;BCS1388054;7;10
009802;08.04.2021;07:59:03;Normalcharge  ;03.12.2018;FEY;;LION;49;14500;7200;192;4;75;77;8400;3000;3897;3897;1;13022;24.54;25.64;26,4;BCS1388054;7;10
009802;08.04.2021;07:59:16;Stop          ;03.12.2018;FEY;;LION;49;14500;7200;192;4;75;77;8400;3000;3897;3897;1;13021;24.54;25.94;26,6;BCS1388054;7;10
009802;08.04.2021;10:36:43;Normalcharge  ;03.12.2018;FEY;;LION;49;14500;7200;192;4;75;77;8400;3000;3897;3897;1;13020;24.74;26.54;28,9;BCS1388054;7;10
009802;08.04.2021;10:37:15;Stop          ;03.12.2018;FEY;;LION;49;14500;7200;128;4;75;77;8400;3000;3933;3913;1;12952;24.74;27.64;29,2;BCS1388054;7;10
009802;18.04.2021;08:34:46;Normalcharge  ;03.12.2018;FEY;;LION;49;14500;7200;192;4;75;77;8400;3000;3895;3895;1;13020;25.44;27.24;28,2;BCS1388054;7;10
009802;18.04.2021;08:34:54;Stop          ;03.12.2018;FEY;;LION;49;14500;7200;192;4;75;77;8400;3000;3895;3895;1;13017;25.44;27.34;28,4;BCS1388054;7;10
009802;04.08.2021;07:24:29;Normalcharge  ;03.12.2018;FEY;;LION;49;14500;7200;192;4;75;77;8400;3000;3870;3871;1;13024;29.44;30.84;31,5;BCS1388054;7;10
009802;04.08.2021;07:25:08;Stop          ;03.12.2018;FEY;;LION;49;14500;7200;128;4;75;77;8400;3000;3894;3882;1;12978;29.44;32.14;31,6;BCS1388054;7;10

File: 009803.txt
Serialnumber ; Date ; Time ; Action ; Date of Manufacture ; Manufacturer ; Battery Name ; Device-Chemistry ; Specification-Info ; Design-Capacity [mAh] ; Design-Voltage [mV] ; Battery Status ; Cycle Count ; SOC [%] ; Relativ SOC[%] ; Desired Voltage [mV]; Desired Current [mA]; Cell Voltage 1 [mV] ; Cell Voltage 2 [mV] ; Max_Error [%] ; Busvoltage[mV] ; Battery Temperature [°C] ; Charger Temperature [°C] ; Batterysystem ; Case ; PLace
009803;24.11.2020;08:59:34;Stop          ;03.12.2018;FEY;;LION;49;14500;7200;192;1;80;81;8400;3000;3944;3944;1;12920;22.54;27.14;26,4;BCS1388054;1;14
009803;24.11.2020;08:59:41;Normalcharge  ;03.12.2018;FEY;;LION;49;14500;7200;192;1;80;81;8400;3000;3944;3944;1;13001;22.54;27.14;26,4;BCS1388054;1;14
009803;24.11.2020;16:23:04;Stop          ;03.12.2018;FEY;;LION;49;14500;7200;224;1;99;100;8400;;4154;4154;1;12998;26.24;29.04;28,5;BCS1388054;1;14
009803;07.12.2020;04:14:17;Cycle         ;03.12.2018;FEY;;LION;49;14500;7200;224;1;99;100;8400;;4144;4144;1;13002;25.24;28.64;30,3;BCS1388054;1;3
009803;08.12.2020;16:19:38;Stop          ;03.12.2018;FEY;;LION;49;14500;7200;224;3;97;100;8400;;4152;4153;1;13002;27.04;30.04;31,9;BCS1388054;1;3
009803;03.03.2021;08:17:08;Normalcharge  ;03.12.2018;FEY;;LION;49;14500;7200;192;3;95;98;8400;;4116;4117;1;12998;22.64;23.34;23,5;BCS1388054;1;9
009803;04.03.2021;07:53:51;Stop          ;03.12.2018;FEY;;LION;49;14500;7200;192;3;95;98;8400;;4116;4116;1;12991;25.74;27.74;31,6;BCS1388054;1;9
009803;04.04.2021;11:50:33;Normalcharge  ;03.12.2018;FEY;;LION;49;14500;7200;192;3;50;52;8400;3000;3669;3669;1;12988;24.54;26.54;27,9;BCS1388054;2;18
009803;04.04.2021;11:51:48;Stop          ;03.12.2018;FEY;;LION;49;14500;7200;128;3;50;52;8400;3000;3758;3707;1;12557;24.64;29.84;28,6;BCS1388054;2;18
009803;05.04.2021;09:38:17;Charge to 60% ;03.12.2018;FEY;;LION;49;14500;7200;192;3;50;52;8400;3000;3671;3671;1;13018;24.64;25.74;26,4;BCS1388054;5;8
009803;05.04.2021;10:34:50;Charge to 60% ;03.12.2018;FEY;;LION;49;14500;7200;192;3;57;60;8400;3000;3747;3749;1;12932;27.54;29.44;32,4;BCS1388054;5;8
009803;05.04.2021;13:16:09;Stop          ;03.12.2018;FEY;;LION;49;14500;7200;192;3;57;60;8400;3000;3744;3746;1;13015;27.44;29.24;32,2;BCS1388054;5;8
009803;22.08.2021;11:37:30;Normalcharge  ;03.12.2018;FEY;;LION;49;14500;7200;192;3;53;55;8400;3000;3696;3696;1;12995;20.94;28.94;31,9;BCS1388054;3;6
009803;22.08.2021;11:38:19;Stop           ;03.12.2018;FEY;;LION;49;14500;7200;128;3;53;55;8400;3000;3782;3735;1;12564;21.14;30.64;32,1;BCS1388054;3;6
009803;25.08.2021;08:15:15;Ladung auf 60% ;03.12.2018;FEY;;LION;49;14500;7200;192;3;53;55;8400;3000;3699;3699;1;12990;30.04;30.94;33,4;BCS1388054;3;6
009803;25.08.2021;08:40:44;Stop           ;03.12.2018;FEY;;LION;49;14500;7200;192;3;57;60;8400;3000;3753;3755;1;12989;31.74;33.04;36,1;BCS1388054;3;6
009803;01.11.2021;09:52:01;Normalcharge  ;03.12.2018;FEY;;LION;49;14500;7200;192;3;55;57;8400;3000;3717;3718;1;13000;25.34;25.84;26,3;BCS1388054;5;14
009803;01.11.2021;09:53:41;Stop          ;03.12.2018;FEY;;LION;49;14500;7200;128;3;55;57;8400;3000;3812;3764;1;12580;25.44;30.14;27,3;BCS1388054;5;14
009803;01.11.2021;10:02:19;Normalcharge  ;03.12.2018;FEY;;LION;49;14500;7200;192;3;55;57;8400;3000;3722;3722;1;12995;25.54;28.04;29,5;BCS1388054;5;14
009803;01.11.2021;10:03:11;Stop          ;03.12.2018;FEY;;LION;49;14500;7200;128;3;55;58;8400;3000;3811;3762;1;12578;25.54;30.34;29,3;BCS1388054;5;14
009803;01.11.2021;10:27:35;Normalcharge  ;03.12.2018;FEY;;LION;49;14500;7200;192;3;55;58;8400;3000;3723;3724;1;13002;25.74;26.64;27,8;BCS1388054;5;14
009803;01.11.2021;10:29:14;Stop          ;03.12.2018;FEY;;LION;49;14500;7200;128;3;56;58;8400;3000;3818;3770;1;12579;25.84;30.84;28,6;BCS1388054;5;14
009803;01.11.2021;10:32:33;Charge to 60% ;03.12.2018;FEY;;LION;49;14500;7200;192;3;56;58;8400;3000;3728;3729;1;12997;25.94;28.24;29,9;BCS1388054;5;14
009803;01.11.2021;11:11:47;Stop          ;03.12.2018;FEY;;LION;49;14500;7200;192;3;57;60;8400;3000;3752;3754;1;12995;27.34;30.24;32,5;BCS1388054;5;14
009803;09.02.2022;08:16:53;Normalcharge  ;03.12.2018;FEY;;LION;49;14500;7200;192;3;45;47;8400;3000;3636;3636;1;12998;21.94;22.44;23,1;BCS1388054;1;5
009803;09.02.2022;13:56:48;Stop          ;03.12.2018;FEY;;LION;49;14500;7200;224;3;97;100;8400;;4157;4156;1;12957;24.84;25.54;29,9;BCS1388054;1;5
009803;14.03.2022;12:14:36;Normalcharge  ;03.12.2018;FEY;;LION;49;14500;7200;224;3;95;99;8400;;4131;4130;1;13010;23.94;25.14;27,7;BCS1388054;3;15
009803;14.03.2022;12:18:51;Stop           ;03.12.2018;FEY;;LION;49;14500;7200;224;3;95;99;8400;;4131;4130;1;12975;23.94;26.04;29,5;BCS1388054;3;15
009803;29.03.2022;08:21:05;Normalcharge  ;03.12.2018;FEY;;LION;49;14500;7200;192;4;82;84;8400;3000;3974;3973;1;12995;24.34;25.34;25,8;BCS1388054;2;15
009803;29.03.2022;08:21:45;Stop          ;03.12.2018;FEY;;LION;49;14500;7200;128;4;82;85;8400;3000;4043;4005;1;12725;24.34;26.94;26,0;BCS1388054;2;15
009803;29.03.2022;08:22:05;Normalcharge  ;03.12.2018;FEY;;LION;49;14500;7200;128;4;82;85;8400;3000;3977;3978;1;12993;24.44;26.74;26,1;BCS1388054;2;15
009803;29.03.2022;08:22:43;Stop          ;03.12.2018;FEY;;LION;49;14500;7200;128;4;82;85;8400;3000;4058;4013;1;12750;24.44;27.84;26,6;BCS1388054;2;15

File: 009805.txt
Serialnumber ; Date ; Time ; Action ; Date of Manufacture ; Manufacturer ; Battery Name ; Device-Chemistry ; Specification-Info ; Design-Capacity [mAh] ; Design-Voltage [mV] ; Battery Status ; Cycle Count ; SOC [%] ; Relativ SOC[%] ; Desired Voltage [mV]; Desired Current [mA]; Cell Voltage 1 [mV] ; Cell Voltage 2 [mV] ; Max_Error [%] ; Busvoltage[mV] ; Battery Temperature [°C] ; Charger Temperature [°C] ; Batterysystem ; Case ; PLace
009805;07.12.2020;04:14:28;Cycle         ;04.12.2018;FEY;;LION;49;14500;7200;192;3;99;98;8400;;4139;4138;1;13003;25.74;28.34;30,3;BCS1388054;4;7
009805;08.12.2020;16:19:56;Stop          ;04.12.2018;FEY;;LION;49;14500;7200;192;3;99;98;8400;;4137;4136;1;13002;27.94;29.94;31,9;BCS1388054;4;7
009805;07.02.2021;08:46:53;Normalcharge  ;04.12.2018;FEY;;LION;49;14500;7200;192;3;97;96;8400;;4115;4115;1;13007;23.54;25.34;29,2;BCS1388054;3;9
009805;07.02.2021;11:52:16;Stop           ;04.12.2018;FEY;;LION;49;14500;7200;192;3;97;96;8400;;4115;4115;1;13007;25.84;26.94;29,7;BCS1388054;3;9
009805;03.03.2021;08:17:35;Normalcharge  ;04.12.2018;FEY;;LION;49;14500;7200;192;3;85;84;8400;3000;3978;3978;1;13018;23.14;23.74;23,6;BCS1388054;5;2
009805;03.03.2021;11:26:36;Stop          ;04.12.2018;FEY;;LION;49;14500;7200;224;3;102;100;8400;;4156;4156;1;13012;28.34;30.54;31,5;BCS1388054;5;2
009805;04.04.2021;11:50:02;Normalcharge  ;04.12.2018;FEY;;LION;49;14500;7200;192;3;53;54;8400;3000;3685;3685;1;12998;24.94;25.44;27,7;BCS1388054;6;7
009805;04.04.2021;11:51:24;Stop          ;04.12.2018;FEY;;LION;49;14500;7200;128;3;53;54;8400;3000;3770;3723;1;12668;24.94;28.74;28,5;BCS1388054;6;7
009805;05.04.2021;09:38:00;Ladung auf 60% ;04.12.2018;FEY;;LION;49;14500;7200;192;3;53;54;8400;3000;3687;3687;1;13008;24.94;24.74;26,3;BCS1388054;3;11
009805;05.04.2021;10:06:07;Stop           ;04.12.2018;FEY;;LION;49;14500;7200;128;3;59;60;8400;3000;3767;3767;1;13005;27.44;28.34;31,4;BCS1388054;3;11
009805;22.08.2021;11:08:13;Normalcharge  ;04.12.2018;FEY;;LION;49;14500;7200;192;3;55;55;8400;3000;3699;3698;1;12991;29.94;30.54;32,2;BCS1388054;6;8
009805;22.08.2021;11:08:46;Stop          ;04.12.2018;FEY;;LION;49;14500;7200;128;3;55;55;8400;3000;3724;3710;1;12797;29.94;31.64;32,5;BCS1388054;6;8
009805;25.08.2021;08:13:04;Normalcharge  ;04.12.2018;FEY;;LION;49;14500;7200;192;4;46;46;8400;3000;3637;3637;1;13015;30.44;31.54;32,4;BCS1388054;7;17
009805;25.08.2021;08:13:16;Stop          ;04.12.2018;FEY;;LION;49;14500;7200;192;4;46;46;8400;3000;3638;3637;1;13005;30.44;31.84;32,5;BCS1388054;7;17
009805;25.08.2021;08:14:41;Charge to 60% ;04.12.2018;FEY;;LION;49;14500;7200;192;4;46;46;8400;3000;3637;3637;1;13014;30.44;31.94;33,0;BCS1388054;7;17
009805;25.08.2021;08:37:46;Stop          ;04.12.2018;FEY;;LION;49;14500;7200;128;4;50;51;8400;3000;3761;3712;1;12720;32.24;40.54;36,1;BCS1388054;7;17
009805;25.08.2021;08:38:03;Charge to 60% ;04.12.2018;FEY;;LION;49;14500;7200;128;4;50;51;8400;3000;3681;3683;1;13013;32.34;39.54;36,1;BCS1388054;7;17
009805;25.08.2021;13:26:36;Stop          ;04.12.2018;FEY;;LION;49;14500;7200;192;4;59;60;8400;3000;3753;3752;1;13012;32.54;34.14;36,4;BCS1388054;7;17

File: 009807.txt
Serialnumber ; Date ; Time ; Action ; Date of Manufacture ; Manufacturer ; Battery Name ; Device-Chemistry ; Specification-Info ; Design-Capacity [mAh] ; Design-Voltage [mV] ; Battery Status ; Cycle Count ; SOC [%] ; Relativ SOC[%] ; Desired Voltage [mV]; Desired Current [mA]; Cell Voltage 1 [mV] ; Cell Voltage 2 [mV] ; Max_Error [%] ; Busvoltage[mV] ; Battery Temperature [°C] ; Charger Temperature [°C] ; Batterysystem ; Case ; PLace
009807;07.12.2020;04:14:36;Cycle         ;03.12.2018;FEY;;LION;49;14500;7200;16576;3;98;98;;;4147;4147;1;12993;25.44;27.64;30,3;BCS1388054;6;7
009807;08.12.2020;16:20:13;Stop          ;03.12.2018;FEY;;LION;49;14500;7200;16576;3;98;98;;;4145;4145;1;12992;27.64;29.24;31,9;BCS1388054;6;7
009807;07.02.2021;08:46:49;Normalcharge  ;03.12.2018;FEY;;LION;49;14500;7200;16576;3;96;96;;;4122;4122;1;13009;23.24;25.74;29,2;BCS1388054;2;9
009807;07.02.2021;11:52:12;Stop          ;03.12.2018;FEY;;LION;49;14500;7200;16576;3;96;96;;;4122;4122;1;13010;25.54;27.14;29,7;BCS1388054;2;9
009807;03.03.2021;08:17:46;Normalcharge  ;03.12.2018;FEY;;LION;49;14500;7200;2768;4;;;8400;3000;3043;3047;1;13039;22.84;22.84;23,6;BCS1388054;7;14
009807;03.03.2021;10:54:05;Stop          ;03.12.2018;FEY;;LION;49;14500;7200;128;4;32;32;8400;3000;3675;3625;1;12709;30.64;38.04;31,4;BCS1388054;7;14
009807;16.03.2021;11:40:53;Normalcharge  ;03.12.2018;FEY;;LION;49;14500;7200;192;4;35;35;8400;3000;3575;3575;1;12997;23.64;24.24;25,1;BCS1388054;1;5
009807;16.03.2021;11:41:01;Stop          ;03.12.2018;FEY;;LION;49;14500;7200;192;4;35;35;8400;3000;3575;3575;1;12997;23.64;24.34;25,1;BCS1388054;1;5
009807;30.03.2021;10:24:15;Normalcharge  ;03.12.2018;FEY;;LION;49;14500;7200;192;4;35;35;8400;3000;3572;3573;1;13013;22.64;22.64;23,9;BCS1388054;6;4
009807;30.03.2021;10:25:32;Stop          ;03.12.2018;FEY;;LION;49;14500;7200;128;4;35;35;8400;3000;3661;3614;1;12992;22.64;25.84;24,8;BCS1388054;6;4
009807;08.04.2021;07:57:52;Normalcharge  ;03.12.2018;FEY;;LION;49;14500;7200;192;4;30;30;8400;3000;3546;3546;1;12998;24.94;25.04;26,3;BCS1388054;1;11
009807;08.04.2021;07:59:50;Stop          ;03.12.2018;FEY;;LION;49;14500;7200;128;4;30;30;8400;3000;3638;3591;1;12930;25.04;28.44;26,8;BCS1388054;1;11
009807;08.04.2021;08:09:05;Charge to 60% ;03.12.2018;FEY;;LION;49;14500;7200;192;4;30;30;8400;3000;3550;3550;1;12994;25.04;25.64;27,4;BCS1388054;1;11
009807;08.04.2021;10:32:41;Stop          ;03.12.2018;FEY;;LION;49;14500;7200;192;4;59;60;8400;3000;3761;3762;1;12966;27.54;26.64;28,8;BCS1388054;1;11
009807;08.04.2021;10:34:35;Normalcharge  ;03.12.2018;FEY;;LION;49;14500;7200;192;4;59;60;8400;3000;3758;3759;1;12990;27.44;26.44;28,1;BCS1388054;1;11
009807;08.04.2021;10:36:49;Stop          ;03.12.2018;FEY;;LION;49;14500;7200;128;4;60;60;8400;3000;3853;3805;1;12871;27.34;29.54;28,9;BCS1388054;1;11
009807;18.04.2021;08:33:24;Normalcharge  ;03.12.2018;FEY;;LION;49;14500;7200;192;4;57;58;8400;3000;3739;3739;1;12995;25.94;26.34;27,7;BCS1388054;1;11
009807;18.04.2021;08:33:29;Stop          ;03.12.2018;FEY;;LION;49;14500;7200;192;4;57;58;8400;3000;3739;3739;1;12991;25.94;26.34;27,7;BCS1388054;1;11
009807;04.08.2021;07:25:01;Normalcharge  ;03.12.2018;FEY;;LION;49;14500;7200;192;4;54;54;8400;3000;3703;3703;1;12986;30.24;30.44;31,5;BCS1388054;1;11
009807;04.08.2021;07:25:57;Stop          ;03.12.2018;FEY;;LION;49;14500;7200;128;4;54;54;8400;3000;3787;3739;1;12762;30.34;32.34;31,9;BCS1388054;1;11
009807;25.08.2021;08:15:19;Charge to 60% ;03.12.2018;FEY;;LION;49;14500;7200;192;4;54;54;8400;3000;3699;3699;1;12986;30.14;32.44;33,5;BCS1388054;2;17
009807;25.08.2021;10:43:17;Stop          ;03.12.2018;FEY;;LION;49;14500;7200;192;4;59;60;8400;3000;3782;3782;1;12985;32.64;34.94;36,4;BCS1388054;2;17
009807;01.11.2021;09:52:14;Normalcharge  ;03.12.2018;FEY;;LION;49;14500;7200;192;4;57;58;8400;3000;3732;3732;1;13004;25.64;26.04;26,3;BCS1388054;2;1
009807;01.11.2021;09:53:17;Stop          ;03.12.2018;FEY;;LION;49;14500;7200;128;4;57;58;8400;3000;3822;3775;1;12530;25.64;28.84;26,8;BCS1388054;2;1
009807;01.11.2021;10:02:05;Normalcharge  ;03.12.2018;FEY;;LION;49;14500;7200;192;4;57;58;8400;3000;3735;3735;1;12996;25.74;28.04;29,5;BCS1388054;2;1
009807;01.11.2021;10:03:24;Stop          ;03.12.2018;FEY;;LION;49;14500;7200;128;4;58;58;8400;3000;3828;3781;1;12532;25.84;30.64;29,3;BCS1388054;2;1
009807;01.11.2021;10:18:10;Normalcharge  ;03.12.2018;FEY;;LION;49;14500;7200;192;4;58;58;8400;3000;3739;3740;1;12997;25.94;27.14;28,4;BCS1388054;2;1
009807;01.11.2021;10:18:47;Stop          ;03.12.2018;FEY;;LION;49;14500;7200;128;4;58;58;8400;3000;3794;3765;1;12606;25.94;28.44;28,2;BCS1388054;2;1
009807;01.11.2021;10:28:53;Normalcharge  ;03.12.2018;FEY;;LION;49;14500;7200;192;4;58;58;8400;3000;3740;3741;1;12997;26.04;27.54;28,2;BCS1388054;2;1
009807;01.11.2021;10:29:00;Stop          ;03.12.2018;FEY;;LION;49;14500;7200;192;4;58;58;8400;3000;3740;3741;1;12984;26.04;27.64;28,4;BCS1388054;2;1
009807;01.11.2021;11:53:39;Stop          ;03.12.2018;FEY;;LION;49;14500;7200;192;4;59;60;8400;3000;3777;3777;1;12996;27.74;30.14;32,5;BCS1388054;2;1
009807;07.02.2022;08:50:52;Normalcharge  ;03.12.2018;FEY;;LION;49;14500;7200;192;4;57;57;8400;3000;3725;3725;1;13013;21.94;22.54;25,0;BCS1388054;5;4
009807;07.02.2022;13:22:36;Stop          ;03.12.2018;FEY;;LION;49;14500;7200;224;4;100;100;8400;;4159;4158;1;13008;26.64;26.84;28,5;BCS1388054;5;4
009807;14.03.2022;12:14:30;Normalcharge  ;03.12.2018;FEY;;LION;49;14500;7200;224;4;98;99;8400;;4131;4130;1;13015;23.84;24.14;27,5;BCS1388054;4;18
009807;14.03.2022;12:18:42;Stop          ;03.12.2018;FEY;;LION;49;14500;7200;224;4;98;99;8400;;4131;4130;1;12833;23.94;24.74;29,5;BCS1388054;4;18
009807;29.03.2022;08:20:58;Normalcharge  ;03.12.2018;FEY;;LION;49;14500;7200;192;5;73;75;8400;3000;3890;3889;1;13006;24.54;25.04;25,7;BCS1388054;4;6
009807;29.03.2022;08:21:36;Stop          ;03.12.2018;FEY;;LION;49;14500;7200;128;5;73;75;8400;3000;3947;3915;1;12715;24.54;26.14;26,0;BCS1388054;4;6
009807;29.03.2022;08:22:11;Normalcharge  ;03.12.2018;FEY;;LION;49;14500;7200;128;5;73;75;8400;3000;3892;3894;1;13003;24.54;25.54;26,3;BCS1388054;4;6
009807;29.03.2022;08:22:29;Stop          ;03.12.2018;FEY;;LION;49;14500;7200;128;5;73;75;8400;3000;3910;3898;1;12897;24.54;25.94;26,4;BCS1388054;4;6

File: 009813.txt
Serialnumber ; Date ; Time ; Action ; Date of Manufacture ; Manufacturer ; Battery Name ; Device-Chemistry ; Specification-Info ; Design-Capacity [mAh] ; Design-Voltage [mV] ; Battery Status ; Cycle Count ; SOC [%] ; Relativ SOC[%] ; Desired Voltage [mV]; Desired Current [mA]; Cell Voltage 1 [mV] ; Cell Voltage 2 [mV] ; Max_Error [%] ; Busvoltage[mV] ; Battery Temperature [°C] ; Charger Temperature [°C] ; Batterysystem ; Case ; PLace
009813;07.02.2021;08:46:53;Normalcharge  ;03.12.2018;FEY;;LION;49;14500;7200;192;4;95;96;8400;;4118;4117;1;13005;23.34;24.94;29,2;BCS1388054;3;4
009813;07.02.2021;11:52:16;Stop           ;03.12.2018;FEY;;LION;49;14500;7200;192;4;95;96;8400;;4118;4116;1;13005;25.64;26.24;29,7;BCS1388054;3;4
009813;03.03.2021;08:17:40;Normalcharge  ;03.12.2018;FEY;;LION;49;14500;7200;192;4;72;73;8400;3000;3881;3881;1;13008;22.94;23.14;23,6;BCS1388054;6;1
009813;03.03.2021;11:56:52;Stop          ;03.12.2018;FEY;;LION;49;14500;7200;224;4;99;100;8400;;4156;4155;1;13003;27.54;29.14;31,7;BCS1388054;6;1
009813;06.04.2021;08:38:40;Normalcharge  ;03.12.2018;FEY;;LION;49;14500;7200;224;4;97;99;8400;;4132;4131;1;12996;20.84;25.04;28,1;BCS1388054;1;1
009813;06.04.2021;08:39:29;Stop          ;03.12.2018;FEY;;LION;49;14500;7200;224;4;97;99;8400;;4133;4131;1;12995;20.94;25.74;28,2;BCS1388054;1;1
009813;08.04.2021;07:57:52;Normalcharge  ;03.12.2018;FEY;;LION;49;14500;7200;224;4;97;99;8400;;4132;4131;1;12997;24.94;25.04;26,3;BCS1388054;1;1
009813;08.04.2021;07:59:50;Stop          ;03.12.2018;FEY;;LION;49;14500;7200;224;4;97;99;8400;;4132;4131;1;12943;24.94;26.34;26,8;BCS1388054;1;1
009813;08.04.2021;10:34:34;Normalcharge  ;03.12.2018;FEY;;LION;49;14500;7200;224;4;97;99;8400;;4132;4131;1;12992;25.94;27.84;28,1;BCS1388054;1;1
009813;08.04.2021;10:36:49;Stop          ;03.12.2018;FEY;;LION;49;14500;7200;224;4;97;99;8400;;4132;4131;1;12882;25.94;28.04;28,9;BCS1388054;1;1
009813;18.04.2021;08:33:24;Normalcharge  ;03.12.2018;FEY;;LION;49;14500;7200;224;4;97;99;8400;;4128;4127;1;12995;25.94;26.64;27,7;BCS1388054;1;1
009813;18.04.2021;08:33:29;Stop          ;03.12.2018;FEY;;LION;49;14500;7200;224;4;97;99;8400;;4128;4127;1;12992;25.94;26.64;27,7;BCS1388054;1;1
009813;04.08.2021;07:25:01;Normalcharge  ;03.12.2018;FEY;;LION;49;14500;7200;192;4;94;96;8400;;4096;4095;1;12989;30.34;31.24;31,5;BCS1388054;1;1
009813;04.08.2021;07:25:57;Stop          ;03.12.2018;FEY;;LION;49;14500;7200;192;4;94;96;8400;;4096;4095;1;12788;30.34;31.84;31,9;BCS1388054;1;1
009813;22.08.2021;11:08:05;Normalcharge  ;03.12.2018;FEY;;LION;49;14500;7200;192;5;67;69;8400;3000;3843;3843;1;12996;22.24;29.34;32,1;BCS1388054;4;15
009813;22.08.2021;11:08:38;Stop          ;03.12.2018;FEY;;LION;49;14500;7200;128;5;67;69;8400;3000;3905;3872;1;12660;22.34;30.54;32,5;BCS1388054;4;15