Folder: Battery_sort_V2/reader/Batterieverzeichnis (part 2)

File: 009508.txt
Serialnumber ; Date ; Time ; Action ; Date of Manufacture ; Manufacturer ; Battery Name ; Device-Chemistry ; Specification-Info ; Design-Capacity [mAh] ; Design-Voltage [mV] ; Battery Status ; Cycle Count ; SOC [%] ; Relativ SOC[%] ; Desired Voltage [mV]; Desired Current [mA]; Cell Voltage 1 [mV] ; Cell Voltage 2 [mV] ; Max_Error [%] ; Busvoltage[mV] ; Battery Temperature [°C] ; Charger Temperature [°C] ; Batterysystem ; Case ; PLace
009508;30.11.2020;09:42:55;Stop          ;03.12.2018;FEY;;LION;49;14500;7200;16576;2;99;99;;;4162;4160;1;13019;27.54;29.04;31,7;BCS1388054;7;17
009508;12.01.2021;04:17:22;Charge to 90% ;03.12.2018;FEY;;LION;49;14500;7200;16576;2;97;98;;;4138;4137;1;13011;23.24;24.34;23,5;BCS1388054;2;3
009508;12.01.2021;04:54:21;Stop          ;03.12.2018;FEY;;LION;49;14500;7200;192;2;90;90;8400;3000;4055;4054;1;13004;26.84;32.54;31,9;BCS1388054;2;3
009508;12.01.2021;05:21:40;Cycle         ;03.12.2018;FEY;;LION;49;14500;7200;192;2;90;90;8400;3000;4066;4065;1;13006;27.14;29.44;30,6;BCS1388054;2;3
009508;13.01.2021;08:20:19;Stop          ;03.12.2018;FEY;;LION;49;14500;7200;224;3;98;100;8400;;4156;4158;1;13006;27.14;29.24;30,8;BCS1388054;2;3
009508;21.02.2021;13:44:56;Normalcharge  ;03.12.2018;FEY;;LION;49;14500;7200;192;4;40;41;8400;3000;3605;3606;1;13009;22.94;23.24;27,7;BCS1388054;5;12
009508;21.02.2021;19:31:36;Stop          ;03.12.2018;FEY;;LION;49;14500;7200;224;4;98;100;8400;;4160;4160;1;13005;26.94;27.04;30,6;BCS1388054;5;12
009508;06.04.2021;08:39:21;Normalcharge  ;03.12.2018;FEY;;LION;49;14500;7200;224;4;98;99;8400;;4127;4127;1;13026;21.64;25.14;28,1;BCS1388054;7;17
009508;06.04.2021;08:40:09;Stop          ;03.12.2018;FEY;;LION;49;14500;7200;224;4;98;99;8400;;4127;4127;1;12947;21.64;25.34;28,5;BCS1388054;7;17
009508;08.04.2021;07:59:03;Normalcharge  ;03.12.2018;FEY;;LION;49;14500;7200;224;4;97;99;8400;;4127;4127;1;13026;25.24;25.44;26,4;BCS1388054;7;17
009508;08.04.2021;07:59:16;Stop          ;03.12.2018;FEY;;LION;49;14500;7200;224;4;97;99;8400;;4127;4127;1;13025;25.24;25.54;26,6;BCS1388054;7;17
009508;08.04.2021;10:36:43;Normalcharge  ;03.12.2018;FEY;;LION;49;14500;7200;224;4;97;99;8400;;4127;4127;1;13029;25.44;26.44;28,9;BCS1388054;7;17
009508;08.04.2021;10:37:15;Stop          ;03.12.2018;FEY;;LION;49;14500;7200;224;4;97;99;8400;;4127;4127;1;12963;25.44;26.64;29,2;BCS1388054;7;17
009508;18.04.2021;08:34:46;Normalcharge  ;03.12.2018;FEY;;LION;49;14500;7200;224;4;97;99;8400;;4123;4123;1;13024;26.14;27.24;28,2;BCS1388054;7;17
009508;18.04.2021;08:34:54;Stop          ;03.12.2018;FEY;;LION;49;14500;7200;224;4;97;99;8400;;4123;4123;1;13021;26.14;27.24;28,4;BCS1388054;7;17
009508;04.08.2021;07:24:29;Normalcharge  ;03.12.2018;FEY;;LION;49;14500;7200;192;4;95;96;8400;;4093;4093;1;13021;30.04;30.64;31,5;BCS1388054;7;17
009508;04.08.2021;07:25:08;Stop          ;03.12.2018;FEY;;LION;49;14500;7200;192;4;95;96;8400;;4093;4093;1;12973;30.14;30.94;31,6;BCS1388054;7;17
009508;14.10.2021;12:40:04;Normalcharge  ;03.12.2018;FEY;;LION;49;14500;7200;192;4;76;78;8400;3000;3914;3914;1;13014;25.44;26.14;27,9;BCS1388054;3;15
009508;14.10.2021;12:41:33;Stop           ;03.12.2018;FEY;;LION;49;14500;7200;128;4;76;78;8400;3000;4007;3961;1;12613;25.54;29.74;28,4;BCS1388054;3;15
009508;07.02.2022;08:50:57;Normalcharge  ;03.12.2018;FEY;;LION;49;14500;7200;192;4;76;78;8400;3000;3891;3891;1;12996;22.34;23.34;25,1;BCS1388054;4;2
009508;07.02.2022;13:19:09;Stop          ;03.12.2018;FEY;;LION;49;14500;7200;224;4;98;100;8400;;4152;4153;1;12993;27.24;28.84;29,7;BCS1388054;4;2
009508;14.03.2022;10:33:51;Normalcharge  ;03.12.2018;FEY;;LION;49;14500;7200;224;4;97;99;8400;;4131;4131;1;13012;24.24;25.04;25,3;BCS1388054;5;4
009508;14.03.2022;10:38:12;Stop          ;03.12.2018;FEY;;LION;49;14500;7200;224;4;97;99;8400;;4131;4132;1;12707;24.24;26.74;28,1;BCS1388054;5;4

File: 009509.txt
Serialnumber ; Date ; Time ; Action ; Date of Manufacture ; Manufacturer ; Battery Name ; Device-Chemistry ; Specification-Info ; Design-Capacity [mAh] ; Design-Voltage [mV] ; Battery Status ; Cycle Count ; SOC [%] ; Relativ SOC[%] ; Desired Voltage [mV]; Desired Current [mA]; Cell Voltage 1 [mV] ; Cell Voltage 2 [mV] ; Max_Error [%] ; Busvoltage[mV] ; Battery Temperature [°C] ; Charger Temperature [°C] ; Batterysystem ; Case ; PLace
009509;01.12.2020;07:38:36;Cycle         ;04.12.2018;FEY;;LION;49;14500;7200;192;1;77;79;8400;3000;3917;3917;1;13008;25.34;26.14;28,8;BCS1388054;2;4
009509;02.12.2020;16:21:01;Stop          ;04.12.2018;FEY;;LION;49;14500;7200;224;2;96;100;8400;;4154;4155;1;13001;26.44;28.34;29,3;BCS1388054;2;4
009509;03.03.2021;08:17:29;Normalcharge  ;04.12.2018;FEY;;LION;49;14500;7200;192;2;83;87;8400;3000;4004;4004;1;13005;23.14;23.14;23,5;BCS1388054;4;14
009509;03.03.2021;10:32:46;Stop          ;04.12.2018;FEY;;LION;49;14500;7200;224;2;96;100;8400;;4158;4158;1;12998;28.44;29.64;32,0;BCS1388054;4;14
009509;04.04.2021;11:50:02;Normalcharge  ;04.12.2018;FEY;;LION;49;14500;7200;224;2;95;99;8400;;4135;4135;1;13007;24.84;24.94;27,7;BCS1388054;6;5
009509;04.04.2021;11:51:24;Stop          ;04.12.2018;FEY;;LION;49;14500;7200;224;2;95;99;8400;;4135;4134;1;12675;24.84;25.34;28,5;BCS1388054;6;5
009509;22.08.2021;11:07:51;Normalcharge  ;04.12.2018;FEY;;LION;49;14500;7200;192;3;80;84;8400;3000;3959;3959;1;12985;22.34;29.84;32,0;BCS1388054;1;11
009509;22.08.2021;11:08:23;Stop          ;04.12.2018;FEY;;LION;49;14500;7200;128;3;80;84;8400;3000;4005;3980;1;12585;22.44;30.74;32,4;BCS1388054;1;11
009509;14.10.2021;12:40:03;Normalcharge  ;04.12.2018;FEY;;LION;49;14500;7200;192;3;78;82;8400;3000;3945;3945;1;13001;25.04;26.04;27,9;BCS1388054;3;7
009509;14.10.2021;12:41:32;Stop           ;04.12.2018;FEY;;LION;49;14500;7200;128;3;78;82;8400;3000;4037;3991;1;12617;25.14;29.34;28,4;BCS1388054;3;7
009509;07.02.2022;08:51:51;Normalcharge  ;04.12.2018;FEY;;LION;49;14500;7200;192;3;77;81;8400;3000;3918;3918;1;13004;22.24;22.84;25,6;BCS1388054;1;17
009509;07.02.2022;13:16:30;Stop          ;04.12.2018;FEY;;LION;49;14500;7200;224;3;96;100;8400;;4150;4151;1;13001;25.24;26.44;31,2;BCS1388054;1;17
009509;14.03.2022;12:14:44;Normalcharge  ;04.12.2018;FEY;;LION;49;14500;7200;224;3;94;99;8400;;4130;4130;1;12999;24.34;25.24;27,7;BCS1388054;1;18
009509;14.03.2022;12:15:19;Stop          ;04.12.2018;FEY;;LION;49;14500;7200;224;3;94;99;8400;;4130;4130;1;12999;24.34;25.34;27,9;BCS1388054;1;18
009509;14.03.2022;12:15:29;Normalcharge  ;04.12.2018;FEY;;LION;49;14500;7200;224;3;94;99;8400;;4130;4130;1;12999;24.34;25.34;28,1;BCS1388054;1;18
009509;14.03.2022;12:16:01;Stop          ;04.12.2018;FEY;;LION;49;14500;7200;224;3;94;99;8400;;4130;4130;1;12998;24.34;25.44;28,4;BCS1388054;1;18
009509;14.03.2022;12:17:43;Normalcharge  ;04.12.2018;FEY;;LION;49;14500;7200;224;3;94;99;8400;;4130;4130;1;12997;24.44;25.64;29,2;BCS1388054;1;18
009509;14.03.2022;12:18:20;Stop          ;04.12.2018;FEY;;LION;49;14500;7200;224;3;94;99;8400;;4130;4130;1;12996;24.44;25.64;29,3;BCS1388054;1;18
009509;14.03.2022;12:19:16;Normalcharge  ;04.12.2018;FEY;;LION;49;14500;7200;224;3;94;99;8400;;4130;4130;1;12997;24.44;25.84;29,5;BCS1388054;1;18
009509;14.03.2022;12:19:20;Stop          ;04.12.2018;FEY;;LION;49;14500;7200;224;3;94;99;8400;;4130;4130;1;12997;24.44;25.84;29,6;BCS1388054;1;18
009509;29.03.2022;08:21:11;Normalcharge  ;04.12.2018;FEY;;LION;49;14500;7200;224;3;94;99;8400;;4124;4124;1;13015;24.64;25.04;25,8;BCS1388054;1;16
009509;29.03.2022;08:21:52;Stop          ;04.12.2018;FEY;;LION;49;14500;7200;224;3;94;99;8400;;4124;4125;1;12726;24.74;25.34;26,0;BCS1388054;1;16
009509;29.03.2022;08:22:01;Normalcharge  ;04.12.2018;FEY;;LION;49;14500;7200;224;3;94;99;8400;;4124;4124;1;13013;24.64;25.34;26,1;BCS1388054;1;16
009509;29.03.2022;08:22:51;Stop          ;04.12.2018;FEY;;LION;49;14500;7200;224;3;94;99;8400;;4124;4124;1;12726;24.64;25.64;26,6;BCS1388054;1;16

File: 009515.txt
Serialnumber ; Date ; Time ; Action ; Date of Manufacture ; Manufacturer ; Battery Name ; Device-Chemistry ; Specification-Info ; Design-Capacity [mAh] ; Design-Voltage [mV] ; Battery Status ; Cycle Count ; SOC [%] ; Relativ SOC[%] ; Desired Voltage [mV]; Desired Current [mA]; Cell Voltage 1 [mV] ; Cell Voltage 2 [mV] ; Max_Error [%] ; Busvoltage[mV] ; Battery Temperature [°C] ; Charger Temperature [°C] ; Batterysystem ; Case ; PLace
009515;24.11.2020;08:56:08;Normalcharge  ;04.12.2018;FEY;;LION;49;14500;7200;192;4;19;19;8400;3000;3455;3454;1;13004;23.74;25.44;25,7;BCS1388054;1;18
009515;24.11.2020;08:59:34;Stop          ;04.12.2018;FEY;;LION;49;14500;7200;128;4;20;20;8400;3000;3563;3512;1;12903;24.14;31.04;26,4;BCS1388054;1;18
009515;24.11.2020;08:59:41;Normalcharge  ;04.12.2018;FEY;;LION;49;14500;7200;128;4;20;20;8400;3000;3478;3480;1;12999;24.14;30.94;26,4;BCS1388054;1;18
009515;24.11.2020;16:23:04;Stop          ;04.12.2018;FEY;;LION;49;14500;7200;224;4;100;100;8400;;4164;4164;1;12999;26.54;27.84;28,5;BCS1388054;1;18
009515;07.12.2020;04:14:36;Cycle         ;04.12.2018;FEY;;LION;49;14500;7200;192;4;97;98;8400;;4139;4139;1;12995;25.64;29.64;30,3;BCS1388054;6;2
009515;08.12.2020;16:20:13;Stop          ;04.12.2018;FEY;;LION;49;14500;7200;192;4;97;98;8400;;4137;4136;1;12995;27.74;31.24;31,9;BCS1388054;6;2
009515;12.01.2021;04:17:36;Charge to 90% ;04.12.2018;FEY;;LION;49;14500;7200;192;4;96;96;8400;;4121;4121;1;13006;23.04;23.54;23,6;BCS1388054;5;14
009515;12.01.2021;05:15:37;Stop          ;04.12.2018;FEY;;LION;49;14500;7200;192;4;90;90;8400;3000;4064;4063;1;12997;26.94;29.14;31,6;BCS1388054;5;14
009515;12.01.2021;05:21:53;Cycle         ;04.12.2018;FEY;;LION;49;14500;7200;192;4;90;90;8400;3000;4064;4064;1;12999;26.94;28.64;30,6;BCS1388054;5;14
009515;13.01.2021;08:31:10;Stop          ;04.12.2018;FEY;;LION;49;14500;7200;224;5;97;100;8400;;4155;4158;1;12998;27.14;28.54;31,1;BCS1388054;5;14
009515;21.02.2021;13:43:19;Normalcharge  ;04.12.2018;FEY;;LION;49;14500;7200;224;5;96;99;8400;;4131;4133;1;12992;23.84;25.74;27,5;BCS1388054;1;1
009515;22.02.2021;17:08:49;Stop          ;04.12.2018;FEY;;LION;49;14500;7200;224;5;96;99;8400;;4130;4131;1;12992;26.14;27.54;30,0;BCS1388054;1;1
009515;06.04.2021;08:39:16;Normalcharge  ;04.12.2018;FEY;;LION;49;14500;7200;192;5;95;98;8400;;4115;4116;1;12999;21.54;25.34;28,1;BCS1388054;6;1
009515;06.04.2021;08:40:03;Stop          ;04.12.2018;FEY;;LION;49;14500;7200;192;5;95;98;8400;;4115;4116;1;12980;21.54;25.64;28,5;BCS1388054;6;1
009515;08.04.2021;07:58:44;Normalcharge  ;04.12.2018;FEY;;LION;49;14500;7200;192;5;95;98;8400;;4115;4116;1;13004;25.14;21.04;26,4;BCS1388054;6;1
009515;08.04.2021;07:59:23;Stop          ;04.12.2018;FEY;;LION;49;14500;7200;192;5;95;98;8400;;4115;4116;1;13003;25.14;25.04;26,7;BCS1388054;6;1
009515;08.04.2021;10:36:16;Normalcharge  ;04.12.2018;FEY;;LION;49;14500;7200;192;5;95;97;8400;;4115;4116;1;13001;25.44;25.94;28,6;BCS1388054;6;1
009515;08.04.2021;10:37:11;Stop          ;04.12.2018;FEY;;LION;49;14500;7200;192;5;95;97;8400;;4115;4116;1;12982;25.44;26.44;29,2;BCS1388054;6;1
009515;18.04.2021;08:34:33;Normalcharge  ;04.12.2018;FEY;;LION;49;14500;7200;192;5;94;97;8400;;4112;4113;1;13000;26.04;26.84;28,2;BCS1388054;6;1
009515;18.04.2021;08:34:41;Stop          ;04.12.2018;FEY;;LION;49;14500;7200;192;5;94;97;8400;;4112;4114;1;13000;26.04;26.94;28,2;BCS1388054;6;1
009515;04.08.2021;07:24:35;Normalcharge  ;04.12.2018;FEY;;LION;49;14500;7200;192;5;93;96;8400;;4083;4085;1;13002;30.04;30.04;31,5;BCS1388054;6;1
009515;04.08.2021;07:25:17;Stop          ;04.12.2018;FEY;;LION;49;14500;7200;192;5;93;96;8400;;4083;4085;1;12987;30.04;30.64;31,6;BCS1388054;6;1
009515;22.08.2021;11:07:59;Normalcharge  ;04.12.2018;FEY;;LION;49;14500;7200;192;5;88;90;8400;3000;4041;4043;1;12996;23.24;29.64;32,1;BCS1388054;3;12
009515;22.08.2021;11:08:34;Stop           ;04.12.2018;FEY;;LION;49;14500;7200;128;5;88;90;8400;3000;4080;4064;1;12700;23.44;30.34;32,4;BCS1388054;3;12

File: 009516.txt
Serialnumber ; Date ; Time ; Action ; Date of Manufacture ; Manufacturer ; Battery Name ; Device-Chemistry ; Specification-Info ; Design-Capacity [mAh] ; Design-Voltage [mV] ; Battery Status ; Cycle Count ; SOC [%] ; Relativ SOC[%] ; Desired Voltage [mV]; Desired Current [mA]; Cell Voltage 1 [mV] ; Cell Voltage 2 [mV] ; Max_Error [%] ; Busvoltage[mV] ; Battery Temperature [°C] ; Charger Temperature [°C] ; Batterysystem ; Case ; PLace
009516;30.11.2020;09:42:55;Stop          ;03.12.2018;FEY;;LION;49;14500;7200;192;3;96;98;8400;;4132;4132;1;13026;27.34;28.54;31,7;BCS1388054;7;4
009516;12.01.2021;04:17:22;Charge to 90% ;03.12.2018;FEY;;LION;49;14500;7200;192;3;95;97;8400;;4115;4115;1;13013;22.84;24.44;23,5;BCS1388054;2;5
009516;12.01.2021;04:54:21;Stop          ;03.12.2018;FEY;;LION;49;14500;7200;192;3;89;90;8400;3000;4054;4054;1;13003;26.54;30.14;31,9;BCS1388054;2;5
009516;12.01.2021;05:21:40;Cycle         ;03.12.2018;FEY;;LION;49;14500;7200;192;3;89;90;8400;3000;4059;4059;1;13006;26.84;28.34;30,6;BCS1388054;2;5
009516;13.01.2021;08:20:19;Stop          ;03.12.2018;FEY;;LION;49;14500;7200;224;5;98;100;8400;;4155;4157;1;13006;26.64;28.34;30,8;BCS1388054;2;5
009516;03.03.2021;08:17:46;Normalcharge  ;03.12.2018;FEY;;LION;49;14500;7200;192;5;39;40;8400;3000;3598;3598;1;13014;22.94;23.54;23,6;BCS1388054;7;9
009516;03.03.2021;10:54:05;Stop          ;03.12.2018;FEY;;LION;49;14500;7200;128;5;71;73;8400;3000;3966;3918;1;12684;30.54;34.14;31,4;BCS1388054;7;9
009516;03.03.2021;10:55:49;Normalcharge  ;03.12.2018;FEY;;LION;49;14500;7200;192;5;71;73;8400;3000;3882;3883;1;13008;30.54;31.84;30,6;BCS1388054;7;9
009516;03.03.2021;17:03:24;Stop          ;03.12.2018;FEY;;LION;49;14500;7200;224;5;100;100;8400;;4153;4156;1;13009;26.14;27.44;31,4;BCS1388054;7;9
009516;04.04.2021;11:50:02;Normalcharge  ;03.12.2018;FEY;;LION;49;14500;7200;192;6;54;54;8400;3000;3691;3692;1;13000;24.64;24.84;27,7;BCS1388054;6;6
009516;04.04.2021;11:51:24;Stop          ;03.12.2018;FEY;;LION;49;14500;7200;128;6;54;55;8400;3000;3780;3731;1;12668;24.74;27.14;28,5;BCS1388054;6;6
009516;05.04.2021;09:37:37;Charge to 60% ;03.12.2018;FEY;;LION;49;14500;7200;192;6;54;55;8400;3000;3694;3694;1;13012;24.74;24.84;26,0;BCS1388054;1;13
009516;05.04.2021;10:01:53;Stop          ;03.12.2018;FEY;;LION;49;14500;7200;128;6;59;60;8400;3000;3775;3779;1;13008;26.94;35.14;31,2;BCS1388054;1;13
009516;22.08.2021;11:37:25;Normalcharge  ;03.12.2018;FEY;;LION;49;14500;7200;192;6;52;53;8400;3000;3658;3658;1;13010;21.64;27.54;31,9;BCS1388054;4;18
009516;22.08.2021;11:38:13;Stop          ;03.12.2018;FEY;;LION;49;14500;7200;128;6;52;53;8400;3000;3732;3691;1;12615;21.84;29.54;32,1;BCS1388054;4;18

File: 009532.txt
Serialnumber ; Date ; Time ; Action ; Date of Manufacture ; Manufacturer ; Battery Name ; Device-Chemistry ; Specification-Info ; Design-Capacity [mAh] ; Design-Voltage [mV] ; Battery Status ; Cycle Count ; SOC [%] ; Relativ SOC[%] ; Desired Voltage [mV]; Desired Current [mA]; Cell Voltage 1 [mV] ; Cell Voltage 2 [mV] ; Max_Error [%] ; Busvoltage[mV] ; Battery Temperature [°C] ; Charger Temperature [°C] ; Batterysystem ; Case ; PLace
009532;07.12.2020;04:14:36;Cycle         ;04.12.2018;FEY;;LION;49;14500;7200;192;3;96;97;8400;;4131;4130;1;12980;25.44;26.54;30,3;BCS1388054;6;16
009532;08.12.2020;16:20:13;Stop          ;04.12.2018;FEY;;LION;49;14500;7200;192;3;96;97;8400;;4129;4129;1;12980;27.54;28.14;31,9;BCS1388054;6;16
009532;12.01.2021;04:17:36;Charge to 90% ;04.12.2018;FEY;;LION;49;14500;7200;192;3;94;96;8400;;4117;4116;1;13013;22.94;23.94;23,6;BCS1388054;5;16
009532;12.01.2021;05:15:37;Stop          ;04.12.2018;FEY;;LION;49;14500;7200;192;3;89;90;8400;3000;4063;4062;1;13008;26.64;28.84;31,6;BCS1388054;5;16
009532;12.01.2021;05:21:53;Cycle         ;04.12.2018;FEY;;LION;49;14500;7200;192;3;89;90;8400;3000;4063;4062;1;13009;26.64;28.34;30,6;BCS1388054;5;16
009532;13.01.2021;08:31:10;Stop          ;04.12.2018;FEY;;LION;49;14500;7200;224;4;97;100;8400;;4155;4155;1;13008;26.94;28.34;31,1;BCS1388054;5;16
009532;21.02.2021;13:43:32;Normalcharge  ;04.12.2018;FEY;;LION;49;14500;7200;192;5;46;47;8400;3000;3637;3637;1;13003;23.24;25.24;27,5;BCS1388054;2;1
009532;21.02.2021;19:26:59;Stop          ;04.12.2018;FEY;;LION;49;14500;7200;224;5;97;100;8400;;4155;4154;1;13004;26.84;28.44;31,1;BCS1388054;2;1
009532;06.04.2021;08:39:10;Normalcharge  ;04.12.2018;FEY;;LION;49;14500;7200;224;5;96;99;8400;;4127;4126;1;12995;21.44;24.84;28,1;BCS1388054;5;13
009532;06.04.2021;08:39:58;Stop          ;04.12.2018;FEY;;LION;49;14500;7200;224;5;96;99;8400;;4127;4126;1;12994;21.44;25.04;28,4;BCS1388054;5;13
009532;08.04.2021;07:58:30;Normalcharge  ;04.12.2018;FEY;;LION;49;14500;7200;224;5;96;99;8400;;4127;4126;1;12996;25.04;24.94;26,4;BCS1388054;5;13
009532;08.04.2021;07:59:28;Stop          ;04.12.2018;FEY;;LION;49;14500;7200;224;5;96;99;8400;;4127;4126;1;12996;25.04;25.34;26,7;BCS1388054;5;13
009532;08.04.2021;10:36:12;Normalcharge  ;04.12.2018;FEY;;LION;49;14500;7200;224;5;96;99;8400;;4127;4126;1;12995;25.34;25.74;28,6;BCS1388054;5;13
009532;08.04.2021;10:37:06;Stop          ;04.12.2018;FEY;;LION;49;14500;7200;224;5;96;99;8400;;4127;4126;1;12995;25.34;26.04;29,0;BCS1388054;5;13
009532;18.04.2021;08:34:16;Normalcharge  ;04.12.2018;FEY;;LION;49;14500;7200;224;5;96;99;8400;;4123;4122;1;12994;25.94;26.54;28,1;BCS1388054;5;13
009532;18.04.2021;08:34:27;Stop          ;04.12.2018;FEY;;LION;49;14500;7200;224;5;96;99;8400;;4123;4122;1;12994;25.94;26.54;28,2;BCS1388054;5;13
009532;04.08.2021;07:24:41;Normalcharge  ;04.12.2018;FEY;;LION;49;14500;7200;192;5;94;96;8400;;4090;4089;1;12991;30.04;30.34;31,5;BCS1388054;5;13
009532;04.08.2021;07:25:23;Stop          ;04.12.2018;FEY;;LION;49;14500;7200;192;5;94;96;8400;;4090;4089;1;12991;30.14;30.64;31,6;BCS1388054;5;13
009532;22.08.2021;11:37:13;Normalcharge  ;04.12.2018;FEY;;LION;49;14500;7200;192;5;92;95;8400;3000;4085;4084;1;13021;22.54;29.14;31,9;BCS1388054;7;11
009532;22.08.2021;11:37:48;Stop          ;04.12.2018;FEY;;LION;49;14500;7200;192;5;92;95;8400;3000;4085;4084;1;12992;22.64;30.14;31,9;BCS1388054;7;11

File: 009534.txt
Serialnumber ; Date ; Time ; Action ; Date of Manufacture ; Manufacturer ; Battery Name ; Device-Chemistry ; Specification-Info ; Design-Capacity [mAh] ; Design-Voltage [mV] ; Battery Status ; Cycle Count ; SOC [%] ; Relativ SOC[%] ; Desired Voltage [mV]; Desired Current [mA]; Cell Voltage 1 [mV] ; Cell Voltage 2 [mV] ; Max_Error [%] ; Busvoltage[mV] ; Battery Temperature [°C] ; Charger Temperature [°C] ; Batterysystem ; Case ; PLace
009534;07.12.2020;04:14:28;Cycle         ;03.12.2018;FEY;;LION;49;14500;7200;192;3;99;98;8400;;4143;4144;1;13004;25.44;27.34;30,3;BCS1388054;4;8
009534;08.12.2020;16:19:56;Stop          ;03.12.2018;FEY;;LION;49;14500;7200;192;3;99;98;8400;;4141;4142;1;13005;27.64;28.74;31,9;BCS1388054;4;8
009534;12.01.2021;04:17:36;Charge to 90% ;03.12.2018;FEY;;LION;49;14500;7200;192;3;98;97;8400;;4127;4128;1;13002;22.84;24.34;23,6;BCS1388054;5;7
009534;12.01.2021;05:15:37;Stop          ;03.12.2018;FEY;;LION;49;14500;7200;192;3;91;90;8400;3000;4062;4063;1;12997;27.14;29.94;31,6;BCS1388054;5;7
009534;12.01.2021;05:21:53;Cycle         ;03.12.2018;FEY;;LION;49;14500;7200;192;3;91;90;8400;3000;4062;4063;1;12997;27.14;29.34;30,6;BCS1388054;5;7
009534;13.01.2021;08:31:10;Stop          ;03.12.2018;FEY;;LION;49;14500;7200;224;4;98;100;8400;;4155;4155;1;12996;27.04;29.34;31,1;BCS1388054;5;7
009534;21.02.2021;13:43:32;Normalcharge  ;03.12.2018;FEY;;LION;49;14500;7200;192;5;58;59;8400;3000;3724;3723;1;13014;22.94;24.14;27,5;BCS1388054;2;6
009534;21.02.2021;19:27:00;Stop          ;03.12.2018;FEY;;LION;49;14500;7200;224;5;99;100;8400;;4154;4154;1;13014;26.34;26.64;31,1;BCS1388054;2;6
009534;04.04.2021;11:50:22;Normalcharge  ;03.12.2018;FEY;;LION;49;14500;7200;224;5;97;99;8400;;4124;4125;1;13005;24.94;26.64;27,9;BCS1388054;4;7
009534;04.04.2021;11:51:36;Stop          ;03.12.2018;FEY;;LION;49;14500;7200;224;5;97;99;8400;;4124;4125;1;12738;24.94;27.14;28,6;BCS1388054;4;7
009534;22.08.2021;11:37:25;Normalcharge  ;03.12.2018;FEY;;LION;49;14500;7200;192;5;92;94;8400;3000;4075;4075;1;13003;21.34;27.94;31,9;BCS1388054;4;13
009534;22.08.2021;11:38:13;Stop          ;03.12.2018;FEY;;LION;49;14500;7200;128;5;92;94;8400;3000;4125;4104;1;12632;21.44;29.84;32,1;BCS1388054;4;13
009534;01.11.2021;10:18:16;Normalcharge  ;03.12.2018;FEY;;LION;49;14500;7200;192;5;84;85;8400;3000;3974;3975;1;12989;23.84;27.04;28,2;BCS1388054;3;8
009534;01.11.2021;10:18:56;Stop           ;03.12.2018;FEY;;LION;49;14500;7200;128;5;84;85;8400;3000;4047;4008;1;12617;23.84;28.44;28,2;BCS1388054;3;8
009534;01.11.2021;10:27:50;Normalcharge  ;03.12.2018;FEY;;LION;49;14500;7200;192;5;84;85;8400;3000;3975;3975;1;12992;24.34;27.24;27,8;BCS1388054;3;8
009534;01.11.2021;10:29:05;Stop           ;03.12.2018;FEY;;LION;49;14500;7200;128;5;84;85;8400;3000;4071;4023;1;12561;24.34;30.04;28,5;BCS1388054;3;8

File: 009545.txt
Serialnumber ; Date ; Time ; Action ; Date of Manufacture ; Manufacturer ; Battery Name ; Device-Chemistry ; Specification-Info ; Design-Capacity [mAh] ; Design-Voltage [mV] ; Battery Status ; Cycle Count ; SOC [%] ; Relativ SOC[%] ; Desired Voltage [mV]; Desired Current [mA]; Cell Voltage 1 [mV] ; Cell Voltage 2 [mV] ; Max_Error [%] ; Busvoltage[mV] ; Battery Temperature [°C] ; Charger Temperature [°C] ; Batterysystem ; Case ; PLace
009545;12.01.2021;04:17:22;Charge to 90% ;03.12.2018;FEY;;LION;49;14500;7200;192;3;95;95;8400;3000;4108;4107;1;12993;22.64;24.04;23,5;BCS1388054;2;7
009545;12.01.2021;04:54:21;Stop          ;03.12.2018;FEY;;LION;49;14500;7200;192;3;90;90;8400;3000;4055;4055;1;12986;25.84;31.14;31,9;BCS1388054;2;7
009545;12.01.2021;05:21:40;Cycle         ;03.12.2018;FEY;;LION;49;14500;7200;192;3;90;90;8400;3000;4059;4058;1;12987;26.44;29.14;30,6;BCS1388054;2;7
009545;13.01.2021;08:20:19;Stop          ;03.12.2018;FEY;;LION;49;14500;7200;224;5;96;100;8400;;4154;4155;1;12987;26.74;28.84;30,8;BCS1388054;2;7
009545;21.02.2021;13:43:48;Normalcharge  ;03.12.2018;FEY;;LION;49;14500;7200;192;5;51;53;8400;3000;3680;3680;1;13004;22.64;23.04;27,7;BCS1388054;3;6
009545;21.02.2021;20:44:52;Stop           ;03.12.2018;FEY;;LION;49;14500;7200;224;5;97;100;8400;;4152;4153;1;12998;26.04;26.64;31,2;BCS1388054;3;6
009545;06.04.2021;08:39:16;Normalcharge  ;03.12.2018;FEY;;LION;49;14500;7200;224;5;96;99;8400;;4127;4128;1;13013;20.94;25.94;28,1;BCS1388054;6;17
009545;06.04.2021;08:40:04;Stop          ;03.12.2018;FEY;;LION;49;14500;7200;224;5;96;99;8400;;4127;4128;1;12993;20.94;26.04;28,5;BCS1388054;6;17
009545;08.04.2021;07:58:44;Normalcharge  ;03.12.2018;FEY;;LION;49;14500;7200;224;5;96;99;8400;;4127;4127;1;13017;24.74;25.74;26,4;BCS1388054;6;17
009545;08.04.2021;07:59:23;Stop          ;03.12.2018;FEY;;LION;49;14500;7200;224;5;96;99;8400;;4127;4127;1;13015;24.74;26.14;26,7;BCS1388054;6;17
009545;08.04.2021;10:36:16;Normalcharge  ;03.12.2018;FEY;;LION;49;14500;7200;224;5;96;99;8400;;4127;4127;1;13015;24.94;26.74;28,6;BCS1388054;6;17
009545;08.04.2021;10:37:11;Stop          ;03.12.2018;FEY;;LION;49;14500;7200;224;5;96;99;8400;;4127;4127;1;12994;24.94;27.04;29,2;BCS1388054;6;17
009545;18.04.2021;08:34:33;Normalcharge  ;03.12.2018;FEY;;LION;49;14500;7200;224;5;96;99;8400;;4123;4124;1;13017;25.64;27.54;28,2;BCS1388054;6;17
009545;18.04.2021;08:34:41;Stop          ;03.12.2018;FEY;;LION;49;14500;7200;224;5;96;99;8400;;4123;4124;1;13016;25.64;27.54;28,2;BCS1388054;6;17
009545;04.08.2021;07:24:35;Normalcharge  ;03.12.2018;FEY;;LION;49;14500;7200;192;5;93;96;8400;;4092;4092;1;13011;29.74;31.14;31,5;BCS1388054;6;17
009545;04.08.2021;07:25:17;Stop          ;03.12.2018;FEY;;LION;49;14500;7200;192;5;93;96;8400;;4092;4092;1;12994;29.74;31.44;31,6;BCS1388054;6;17
009545;22.08.2021;11:37:17;Normalcharge  ;03.12.2018;FEY;;LION;49;14500;7200;192;5;90;93;8400;3000;4069;4070;1;12990;22.14;29.34;31,9;BCS1388054;6;18
009545;22.08.2021;11:37:57;Stop          ;03.12.2018;FEY;;LION;49;14500;7200;128;5;90;93;8400;3000;4100;4088;1;12833;22.24;30.84;32,0;BCS1388054;6;18
009545;14.10.2021;12:39:57;Normalcharge  ;03.12.2018;FEY;;LION;49;14500;7200;192;5;89;93;8400;3000;4054;4055;1;13000;25.04;26.74;27,9;BCS1388054;2;2
009545;14.10.2021;12:41:24;Stop          ;03.12.2018;FEY;;LION;49;14500;7200;128;5;89;93;8400;3000;4127;4097;1;12584;25.04;30.24;28,2;BCS1388054;2;2
009545;01.11.2021;09:52:11;Normalcharge  ;03.12.2018;FEY;;LION;49;14500;7200;192;5;76;80;8400;3000;3925;3925;1;13011;23.94;24.84;26,4;BCS1388054;3;15
009545;01.11.2021;09:53:27;Stop           ;03.12.2018;FEY;;LION;49;14500;7200;128;5;76;80;8400;3000;4018;3972;1;12600;23.94;28.14;27,1;BCS1388054;3;15
009545;01.11.2021;10:02:09;Normalcharge  ;03.12.2018;FEY;;LION;49;14500;7200;192;5;76;80;8400;3000;3927;3927;1;13004;24.24;27.24;29,5;BCS1388054;3;15
009545;01.11.2021;10:03:20;Stop           ;03.12.2018;FEY;;LION;49;14500;7200;128;5;76;80;8400;3000;4021;3974;1;12602;24.34;29.84;29,5;BCS1388054;3;15
009545;07.02.2022;08:51:04;Normalcharge  ;03.12.2018;FEY;;LION;49;14500;7200;192;5;76;80;8400;3000;3905;3905;1;13006;21.94;22.74;25,1;BCS1388054;3;9
009545;07.02.2022;14:32:56;Stop           ;03.12.2018;FEY;;LION;49;14500;7200;224;5;96;100;8400;;4147;4148;1;13002;25.24;26.44;30,8;BCS1388054;3;9
009545;14.03.2022;12:14:36;Normalcharge  ;03.12.2018;FEY;;LION;49;14500;7200;224;5;95;99;8400;;4128;4128;1;13007;24.14;25.14;27,7;BCS1388054;3;5
009545;14.03.2022;12:18:51;Stop           ;03.12.2018;FEY;;LION;49;14500;7200;224;5;95;99;8400;;4128;4128;1;12971;24.14;25.74;29,5;BCS1388054;3;5