Folder: Battery_sort_V2/reader/Batterieverzeichnis_new (part 9)

File: 009685.txt
Serialnumber ; Date ; Time ; Action ; Date of Manufacture ; Manufacturer ; Battery Name ; Device-Chemistry ; Specification-Info ; Design-Capacity [mAh] ; Design-Voltage [mV] ; Battery Status ; Cycle Count ; SOC [%] ; Relativ SOC[%] ; Desired Voltage [mV]; Desired Current [mA]; Cell Voltage 1 [mV] ; Cell Voltage 2 [mV] ; Max_Error [%] ; Busvoltage[mV] ; Battery Temperature [°C] ; Charger Temperature [°C] ; Batterysystem ; Case ; PLace
009685;07.12.2020;04:14:28;Cycle         ;04.12.2018;FEY;;LION;49;14500;7200;192;2;97;98;8400;;4149;4150;1;13013;25.74;27.34;30,3;BCS1388054;4;4
009685;08.12.2020;16:19:56;Stop          ;04.12.2018;FEY;;LION;49;14500;7200;192;2;97;98;8400;;4146;4147;1;13013;27.74;28.64;31,9;BCS1388054;4;4
009685;12.01.2021;04:17:40;Charge to 90% ;04.12.2018;FEY;;LION;49;14500;7200;192;2;96;97;8400;;4132;4132;1;13008;23.04;23.94;23,6;BCS1388054;6;9
009685;12.01.2021;05:00:55;Stop          ;04.12.2018;FEY;;LION;49;14500;7200;192;2;90;90;8400;3000;4062;4062;1;13003;26.94;29.34;31,2;BCS1388054;6;9
009685;12.01.2021;05:21:57;Cycle         ;04.12.2018;FEY;;LION;49;14500;7200;192;2;90;90;8400;3000;4065;4066;1;13003;27.04;28.34;30,4;BCS1388054;6;9
009685;13.01.2021;08:31:18;Stop          ;04.12.2018;FEY;;LION;49;14500;7200;224;3;97;100;8400;;4156;4157;1;13004;27.04;28.24;31,1;BCS1388054;6;9
009685;21.02.2021;13:45:29;Normalcharge  ;04.12.2018;FEY;;LION;49;14500;7200;224;3;96;99;8400;;4132;4133;1;13013;23.14;22.54;27,8;BCS1388054;6;4
009685;22.02.2021;17:20:47;Stop          ;04.12.2018;FEY;;LION;49;14500;7200;224;3;96;99;8400;;4131;4132;1;13006;26.34;26.14;30,7;BCS1388054;6;4
009685;06.04.2021;08:38:50;Normalcharge  ;04.12.2018;FEY;;LION;49;14500;7200;192;3;95;98;8400;;4117;4118;1;13013;20.54;24.84;28,1;BCS1388054;3;15
009685;06.04.2021;08:39:42;Stop           ;04.12.2018;FEY;;LION;49;14500;7200;192;3;95;98;8400;;4117;4118;1;13011;20.64;25.14;28,2;BCS1388054;3;15
009685;08.04.2021;07:58:01;Normalcharge  ;04.12.2018;FEY;;LION;49;14500;7200;192;3;94;98;8400;;4117;4117;1;13018;25.24;25.14;26,4;BCS1388054;3;15
009685;08.04.2021;07:59:40;Stop           ;04.12.2018;FEY;;LION;49;14500;7200;192;3;94;98;8400;;4117;4117;1;13016;25.24;25.94;26,8;BCS1388054;3;15
009685;08.04.2021;10:35:05;Normalcharge  ;04.12.2018;FEY;;LION;49;14500;7200;192;3;95;98;8400;;4117;4117;1;13018;25.54;25.44;28,1;BCS1388054;3;15
009685;08.04.2021;10:36:56;Stop           ;04.12.2018;FEY;;LION;49;14500;7200;192;3;95;98;8400;;4117;4117;1;13015;25.54;26.34;29,0;BCS1388054;3;15
009685;18.04.2021;08:33:50;Normalcharge  ;04.12.2018;FEY;;LION;49;14500;7200;192;3;94;97;8400;;4114;4114;1;13012;26.14;26.64;27,8;BCS1388054;3;15
009685;18.04.2021;08:33:58;Stop           ;04.12.2018;FEY;;LION;49;14500;7200;192;3;94;97;8400;;4114;4114;1;13011;26.14;26.64;27,9;BCS1388054;3;15
009685;04.08.2021;07:24:50;Normalcharge  ;04.12.2018;FEY;;LION;49;14500;7200;192;3;93;96;8400;;4086;4087;1;13011;30.44;30.74;31,6;BCS1388054;3;15
009685;04.08.2021;07:25:37;Stop           ;04.12.2018;FEY;;LION;49;14500;7200;192;3;93;96;8400;;4086;4087;1;13010;30.44;31.04;31,7;BCS1388054;3;15
009685;22.08.2021;11:08:05;Normalcharge  ;04.12.2018;FEY;;LION;49;14500;7200;192;3;89;92;8400;3000;4055;4056;1;12998;22.84;30.04;32,1;BCS1388054;4;12
009685;22.08.2021;11:08:38;Stop          ;04.12.2018;FEY;;LION;49;14500;7200;128;3;89;92;8400;3000;4093;4077;1;12664;23.04;30.84;32,5;BCS1388054;4;12
009685;14.10.2021;12:39:57;Normalcharge  ;04.12.2018;FEY;;LION;49;14500;7200;192;3;87;89;8400;3000;4028;4029;1;13002;25.64;26.44;27,9;BCS1388054;2;1
009685;14.10.2021;12:41:24;Stop          ;04.12.2018;FEY;;LION;49;14500;7200;128;3;87;89;8400;3000;4109;4075;1;12587;25.74;29.74;28,2;BCS1388054;2;1
009685;01.11.2021;09:52:10;Normalcharge  ;04.12.2018;FEY;;LION;49;14500;7200;192;3;85;88;8400;3000;4010;4011;1;12996;24.44;25.04;26,4;BCS1388054;3;6
009685;01.11.2021;09:53:26;Stop           ;04.12.2018;FEY;;LION;49;14500;7200;128;3;85;88;8400;3000;4100;4059;1;12598;24.44;27.54;27,1;BCS1388054;3;6
009685;01.11.2021;10:02:09;Normalcharge  ;04.12.2018;FEY;;LION;49;14500;7200;192;3;85;88;8400;3000;4013;4013;1;12992;24.84;26.44;29,5;BCS1388054;3;6
009685;01.11.2021;10:03:20;Stop           ;04.12.2018;FEY;;LION;49;14500;7200;128;3;85;88;8400;3000;4102;4061;1;12590;24.94;28.24;29,5;BCS1388054;3;6
009685;28.12.2021;09:01:25;Normalcharge  ;04.12.2018;FEY;;LION;49;14500;7200;192;4;81;84;8400;3000;3963;3963;1;13004;23.54;24.04;25,3;BCS1388054;3;12
009685;28.12.2021;09:02:24;Stop           ;04.12.2018;FEY;;LION;49;14500;7200;128;4;81;84;8400;3000;4059;4012;1;12549;23.54;25.64;25,8;BCS1388054;3;12

File: 009687.txt
Serialnumber ; Date ; Time ; Action ; Date of Manufacture ; Manufacturer ; Battery Name ; Device-Chemistry ; Specification-Info ; Design-Capacity [mAh] ; Design-Voltage [mV] ; Battery Status ; Cycle Count ; SOC [%] ; Relativ SOC[%] ; Desired Voltage [mV]; Desired Current [mA]; Cell Voltage 1 [mV] ; Cell Voltage 2 [mV] ; Max_Error [%] ; Busvoltage[mV] ; Battery Temperature [°C] ; Charger Temperature [°C] ; Batterysystem ; Case ; PLace
009687;07.12.2020;04:14:40;Cycle         ;04.12.2018;FEY;;LION;49;14500;7200;192;3;95;96;8400;;4107;4107;1;13022;25.74;26.34;30,3;BCS1388054;7;11
009687;08.12.2020;16:20:20;Stop          ;04.12.2018;FEY;;LION;49;14500;7200;192;3;95;96;8400;;4106;4106;1;13019;27.54;27.54;31,9;BCS1388054;7;11
009687;12.01.2021;04:16:00;Charge to 90% ;04.12.2018;FEY;;LION;49;14500;7200;192;3;87;89;8400;3000;4030;4031;1;12999;23.14;22.04;23,0;BCS1388054;1;11
009687;12.01.2021;04:16:03;Stop          ;04.12.2018;FEY;;LION;49;14500;7200;192;3;87;89;8400;3000;4030;4031;1;13000;23.14;22.64;23,0;BCS1388054;1;11
009687;12.01.2021;04:17:15;Charge to 90% ;04.12.2018;FEY;;LION;49;14500;7200;192;3;87;89;8400;3000;4030;4031;1;12996;23.14;23.04;23,5;BCS1388054;1;11
009687;12.01.2021;04:55:18;Stop          ;04.12.2018;FEY;;LION;49;14500;7200;192;3;88;90;8400;3000;4041;4043;1;12990;26.34;28.24;31,7;BCS1388054;1;11
009687;12.01.2021;05:21:33;Cycle         ;04.12.2018;FEY;;LION;49;14500;7200;192;3;88;90;8400;3000;4041;4042;1;12991;26.74;26.44;30,6;BCS1388054;1;11
009687;13.01.2021;08:18:34;Stop          ;04.12.2018;FEY;;LION;49;14500;7200;224;4;96;100;8400;;4155;4158;1;12993;26.54;26.34;30,7;BCS1388054;1;11
009687;03.03.2021;08:17:21;Normalcharge  ;04.12.2018;FEY;;LION;49;14500;7200;192;4;91;94;8400;3000;4085;4087;1;13019;23.24;23.14;23,5;BCS1388054;3;3
009687;04.03.2021;07:53:39;Stop           ;04.12.2018;FEY;;LION;49;14500;7200;224;4;97;100;8400;;4147;4149;1;13015;26.54;28.14;31,5;BCS1388054;3;3
009687;04.04.2021;11:50:22;Normalcharge  ;04.12.2018;FEY;;LION;49;14500;7200;192;5;16;16;8400;3000;3409;3420;1;13009;25.24;26.04;27,9;BCS1388054;4;12
009687;04.04.2021;11:51:36;Stop          ;04.12.2018;FEY;;LION;49;14500;7200;128;5;16;16;8400;3000;3508;3470;1;12715;25.24;27.84;28,6;BCS1388054;4;12
009687;05.04.2021;09:38:17;Charge to 60% ;04.12.2018;FEY;;LION;49;14500;7200;192;5;16;16;8400;3000;3413;3423;1;13016;25.14;25.44;26,4;BCS1388054;5;17
009687;05.04.2021;10:34:50;Charge to 60% ;04.12.2018;FEY;;LION;49;14500;7200;128;5;27;28;8400;3000;3644;3598;1;12913;28.64;35.64;32,4;BCS1388054;5;17
009687;05.04.2021;13:16:09;Stop          ;04.12.2018;FEY;;LION;49;14500;7200;192;5;57;60;8400;3000;3752;3761;1;13012;29.24;29.24;32,2;BCS1388054;5;17
009687;22.08.2021;11:37:30;Normalcharge  ;04.12.2018;FEY;;LION;49;14500;7200;192;5;53;55;8400;3000;3696;3699;1;13001;22.14;28.84;31,9;BCS1388054;3;5
009687;22.08.2021;11:38:19;Stop           ;04.12.2018;FEY;;LION;49;14500;7200;128;5;53;55;8400;3000;3782;3739;1;12570;22.24;30.84;32,1;BCS1388054;3;5
009687;25.08.2021;08:15:15;Ladung auf 60% ;04.12.2018;FEY;;LION;49;14500;7200;192;5;53;55;8400;3000;3698;3701;1;12999;30.54;31.54;33,4;BCS1388054;3;5
009687;25.08.2021;08:40:44;Stop           ;04.12.2018;FEY;;LION;49;14500;7200;192;5;57;60;8400;3000;3755;3764;1;12999;32.24;33.54;36,1;BCS1388054;3;5
009687;01.11.2021;09:52:01;Normalcharge  ;04.12.2018;FEY;;LION;49;14500;7200;192;5;55;57;8400;3000;3717;3721;1;13017;25.84;25.64;26,3;BCS1388054;5;17
009687;01.11.2021;09:53:41;Stop          ;04.12.2018;FEY;;LION;49;14500;7200;128;5;55;57;8400;3000;3810;3766;1;12580;25.94;29.54;27,3;BCS1388054;5;17
009687;01.11.2021;10:02:19;Normalcharge  ;04.12.2018;FEY;;LION;49;14500;7200;192;5;55;57;8400;3000;3721;3725;1;13011;26.04;27.44;29,5;BCS1388054;5;17
009687;01.11.2021;10:03:11;Stop          ;04.12.2018;FEY;;LION;49;14500;7200;128;5;55;58;8400;3000;3808;3765;1;12579;26.04;29.64;29,3;BCS1388054;5;17
009687;01.11.2021;10:27:35;Normalcharge  ;04.12.2018;FEY;;LION;49;14500;7200;192;5;55;58;8400;3000;3723;3727;1;13014;26.24;26.24;27,8;BCS1388054;5;17
009687;01.11.2021;10:29:14;Stop          ;04.12.2018;FEY;;LION;49;14500;7200;128;5;55;58;8400;3000;3816;3773;1;12576;26.34;30.34;28,6;BCS1388054;5;17
009687;01.11.2021;10:32:33;Charge to 60% ;04.12.2018;FEY;;LION;49;14500;7200;192;5;55;58;8400;3000;3728;3732;1;13012;26.34;27.84;29,9;BCS1388054;5;17
009687;01.11.2021;11:11:47;Stop          ;04.12.2018;FEY;;LION;49;14500;7200;192;5;57;60;8400;3000;3753;3759;1;13011;27.74;29.34;32,5;BCS1388054;5;17
009687;09.02.2022;08:16:53;Normalcharge  ;04.12.2018;FEY;;LION;49;14500;7200;192;5;45;48;8400;3000;3634;3637;1;12996;22.34;22.64;23,1;BCS1388054;1;1
009687;09.02.2022;13:56:48;Stop          ;04.12.2018;FEY;;LION;49;14500;7200;224;5;96;100;8400;;4157;4156;1;12957;25.74;27.14;29,9;BCS1388054;1;1
009687;14.03.2022;10:33:46;Normalcharge  ;04.12.2018;FEY;;LION;49;14500;7200;192;6;63;65;8400;3000;3789;3796;1;12996;24.24;25.04;25,1;BCS1388054;6;18
009687;14.03.2022;10:38:06;Stop          ;04.12.2018;FEY;;LION;49;14500;7200;128;6;63;66;8400;3000;3902;3857;1;12630;24.54;32.04;28,1;BCS1388054;6;18

File: 009689.txt
Serialnumber ; Date ; Time ; Action ; Date of Manufacture ; Manufacturer ; Battery Name ; Device-Chemistry ; Specification-Info ; Design-Capacity [mAh] ; Design-Voltage [mV] ; Battery Status ; Cycle Count ; SOC [%] ; Relativ SOC[%] ; Desired Voltage [mV]; Desired Current [mA]; Cell Voltage 1 [mV] ; Cell Voltage 2 [mV] ; Max_Error [%] ; Busvoltage[mV] ; Battery Temperature [°C] ; Charger Temperature [°C] ; Batterysystem ; Case ; PLace
009689;07.12.2020;04:14:36;Cycle         ;04.12.2018;FEY;;LION;49;14500;7200;192;5;96;98;8400;;4125;4125;1;12997;25.44;27.74;30,3;BCS1388054;6;1
009689;08.12.2020;16:20:13;Stop          ;04.12.2018;FEY;;LION;49;14500;7200;192;5;96;98;8400;;4123;4123;1;12997;27.44;29.34;31,9;BCS1388054;6;1
009689;12.01.2021;04:17:47;Charge to 90% ;04.12.2018;FEY;;LION;49;14500;7200;192;5;95;97;8400;;4112;4112;1;13028;22.74;23.34;23,8;BCS1388054;7;3
009689;12.01.2021;04:57:19;Stop          ;04.12.2018;FEY;;LION;49;14500;7200;192;5;89;90;8400;3000;4050;4050;1;13022;26.14;28.94;31,5;BCS1388054;7;3
009689;12.01.2021;05:22:01;Cycle         ;04.12.2018;FEY;;LION;49;14500;7200;192;5;89;90;8400;3000;4054;4054;1;13024;26.34;27.54;30,4;BCS1388054;7;3
009689;13.01.2021;08:19:29;Stop          ;04.12.2018;FEY;;LION;49;14500;7200;224;6;96;100;8400;;4153;4154;1;13023;26.24;27.54;30,7;BCS1388054;7;3
009689;21.02.2021;13:43:32;Normalcharge  ;04.12.2018;FEY;;LION;49;14500;7200;224;6;95;99;8400;;4130;4130;1;13005;22.94;24.84;27,5;BCS1388054;2;16
009689;21.02.2021;19:27:00;Stop          ;04.12.2018;FEY;;LION;49;14500;7200;224;6;95;99;8400;;4131;4131;1;13004;26.74;27.84;31,1;BCS1388054;2;16
009689;04.04.2021;11:50:39;Normalcharge  ;04.12.2018;FEY;;LION;49;14500;7200;192;6;94;98;8400;;4116;4116;1;13007;24.74;26.94;28,1;BCS1388054;1;6
009689;04.04.2021;11:51:54;Stop          ;04.12.2018;FEY;;LION;49;14500;7200;192;6;94;98;8400;;4116;4115;1;12570;24.74;27.14;28,8;BCS1388054;1;6
009689;22.08.2021;11:37:30;Normalcharge  ;04.12.2018;FEY;;LION;49;14500;7200;192;6;91;95;8400;3000;4071;4070;1;12997;21.04;27.74;31,9;BCS1388054;3;11
009689;22.08.2021;11:38:19;Stop           ;04.12.2018;FEY;;LION;49;14500;7200;128;6;92;95;8400;3000;4126;4104;1;12550;21.24;29.54;32,1;BCS1388054;3;11
009689;12.10.2021;12:58:56;Normalcharge  ;04.12.2018;FEY;;LION;49;14500;7200;192;6;89;92;8400;3000;4056;4056;1;12997;23.24;27.44;28,5;BCS1388054;6;8
009689;12.10.2021;12:59:25;Stop          ;04.12.2018;FEY;;LION;49;14500;7200;192;6;89;92;8400;3000;4056;4055;1;12967;23.34;28.34;28,6;BCS1388054;6;8
009689;14.10.2021;12:40:08;Normalcharge  ;04.12.2018;FEY;;LION;49;14500;7200;192;6;86;89;8400;3000;4025;4025;1;13000;24.74;26.14;27,9;BCS1388054;4;14
009689;14.10.2021;12:41:44;Stop          ;04.12.2018;FEY;;LION;49;14500;7200;128;6;86;89;8400;3000;4107;4071;1;12659;24.84;29.84;28,4;BCS1388054;4;14
009689;14.03.2022;12:14:30;Normalcharge  ;04.12.2018;FEY;;LION;49;14500;7200;192;6;82;85;8400;3000;3978;3978;1;13014;24.04;25.74;27,5;BCS1388054;4;10
009689;14.03.2022;12:18:42;Stop          ;04.12.2018;FEY;;LION;49;14500;7200;128;6;83;86;8400;3000;4097;4049;1;12822;24.34;31.04;29,5;BCS1388054;4;10

File: 009690.txt
Serialnumber ; Date ; Time ; Action ; Date of Manufacture ; Manufacturer ; Battery Name ; Device-Chemistry ; Specification-Info ; Design-Capacity [mAh] ; Design-Voltage [mV] ; Battery Status ; Cycle Count ; SOC [%] ; Relativ SOC[%] ; Desired Voltage [mV]; Desired Current [mA]; Cell Voltage 1 [mV] ; Cell Voltage 2 [mV] ; Max_Error [%] ; Busvoltage[mV] ; Battery Temperature [°C] ; Charger Temperature [°C] ; Batterysystem ; Case ; PLace
009690;07.12.2020;04:14:25;Cycle          ;03.12.2018;FEY;;LION;49;14500;7200;192;1;98;98;8400;;4136;4137;1;13000;25.04;27.54;30,3;BCS1388054;3;7
009690;08.12.2020;16:19:50;Stop           ;03.12.2018;FEY;;LION;49;14500;7200;192;1;98;98;8400;;4134;4134;1;13000;27.34;29.24;31,9;BCS1388054;3;7
009690;12.01.2021;04:17:40;Charge to 90% ;03.12.2018;FEY;;LION;49;14500;7200;192;1;97;97;8400;;4121;4121;1;13006;22.44;23.84;23,6;BCS1388054;6;14
009690;12.01.2021;05:00:55;Stop          ;03.12.2018;FEY;;LION;49;14500;7200;192;2;90;90;8400;3000;4050;4050;1;13000;26.14;30.54;31,2;BCS1388054;6;14
009690;12.01.2021;05:21:57;Cycle         ;03.12.2018;FEY;;LION;49;14500;7200;192;2;90;90;8400;3000;4053;4053;1;13000;26.24;29.24;30,4;BCS1388054;6;14
009690;13.01.2021;08:31:18;Stop          ;03.12.2018;FEY;;LION;49;14500;7200;224;3;97;100;8400;;4156;4155;1;13000;26.44;29.14;31,1;BCS1388054;6;14
009690;21.02.2021;13:45:29;Normalcharge  ;03.12.2018;FEY;;LION;49;14500;7200;192;3;95;98;8400;;4117;4116;1;13003;22.34;23.54;27,8;BCS1388054;6;8
009690;06.04.2021;08:39:21;Normalcharge  ;03.12.2018;FEY;;LION;49;14500;7200;192;3;95;97;8400;;4104;4103;1;13032;20.64;24.74;28,1;BCS1388054;7;4
009690;06.04.2021;08:40:08;Stop          ;03.12.2018;FEY;;LION;49;14500;7200;192;3;95;97;8400;;4104;4103;1;12949;20.74;25.14;28,5;BCS1388054;7;4
009690;08.04.2021;07:59:03;Normalcharge  ;03.12.2018;FEY;;LION;49;14500;7200;192;3;95;97;8400;;4103;4103;1;13032;24.54;24.74;26,4;BCS1388054;7;4
009690;08.04.2021;07:59:16;Stop          ;03.12.2018;FEY;;LION;49;14500;7200;192;3;95;97;8400;;4103;4103;1;13027;24.54;24.84;26,6;BCS1388054;7;4
009690;08.04.2021;10:36:43;Normalcharge  ;03.12.2018;FEY;;LION;49;14500;7200;192;3;95;97;8400;;4103;4103;1;13030;24.74;25.94;28,9;BCS1388054;7;4
009690;08.04.2021;10:37:15;Stop          ;03.12.2018;FEY;;LION;49;14500;7200;192;3;95;97;8400;;4103;4103;1;12968;24.74;26.14;29,2;BCS1388054;7;4
009690;18.04.2021;08:34:46;Normalcharge  ;03.12.2018;FEY;;LION;49;14500;7200;192;3;95;97;8400;;4101;4100;1;13030;25.44;26.64;28,2;BCS1388054;7;4
009690;18.04.2021;08:34:54;Stop          ;03.12.2018;FEY;;LION;49;14500;7200;192;3;95;97;8400;;4101;4100;1;13026;25.44;26.64;28,4;BCS1388054;7;4
009690;04.08.2021;07:24:29;Normalcharge  ;03.12.2018;FEY;;LION;49;14500;7200;192;3;95;97;8400;;4074;4073;1;13027;29.34;29.94;31,5;BCS1388054;7;4
009690;04.08.2021;07:25:08;Stop          ;03.12.2018;FEY;;LION;49;14500;7200;192;3;95;97;8400;;4074;4073;1;12973;29.34;30.34;31,6;BCS1388054;7;4
009690;14.10.2021;12:39:52;Normalcharge  ;03.12.2018;FEY;;LION;49;14500;7200;192;3;68;70;8400;3000;3846;3846;1;12997;23.94;26.34;27,9;BCS1388054;1;18
009690;14.10.2021;12:41:15;Stop          ;03.12.2018;FEY;;LION;49;14500;7200;128;3;68;70;8400;3000;3939;3889;1;12445;24.14;29.74;28,2;BCS1388054;1;18
009690;07.02.2022;08:51:51;Normalcharge  ;03.12.2018;FEY;;LION;49;14500;7200;192;3;68;70;8400;3000;3820;3820;1;12994;21.74;23.34;25,6;BCS1388054;1;9
009690;07.02.2022;13:16:30;Stop          ;03.12.2018;FEY;;LION;49;14500;7200;224;3;98;100;8400;;4154;4154;1;12990;24.94;27.14;31,2;BCS1388054;1;9
009690;14.03.2022;12:14:26;Normalcharge  ;03.12.2018;FEY;;LION;49;14500;7200;224;3;96;99;8400;;4130;4130;1;13007;23.34;24.94;27,5;BCS1388054;5;12
009690;14.03.2022;12:18:30;Stop          ;03.12.2018;FEY;;LION;49;14500;7200;224;3;96;99;8400;;4130;4130;1;13004;23.54;25.44;29,5;BCS1388054;5;12

File: 009691.txt
Serialnumber ; Date ; Time ; Action ; Date of Manufacture ; Manufacturer ; Battery Name ; Device-Chemistry ; Specification-Info ; Design-Capacity [mAh] ; Design-Voltage [mV] ; Battery Status ; Cycle Count ; SOC [%] ; Relativ SOC[%] ; Desired Voltage [mV]; Desired Current [mA]; Cell Voltage 1 [mV] ; Cell Voltage 2 [mV] ; Max_Error [%] ; Busvoltage[mV] ; Battery Temperature [°C] ; Charger Temperature [°C] ; Batterysystem ; Case ; PLace
009691;07.12.2020;04:14:25;Cycle          ;04.12.2018;FEY;;LION;49;14500;7200;16576;2;98;99;;;4155;4155;1;13004;26.04;27.04;30,3;BCS1388054;3;5
009691;08.12.2020;16:19:50;Stop           ;04.12.2018;FEY;;LION;49;14500;7200;16576;2;98;99;;;4153;4153;1;13005;28.04;28.54;31,9;BCS1388054;3;5
009691;12.01.2021;04:17:33;Charge to 90% ;04.12.2018;FEY;;LION;49;14500;7200;16576;2;97;97;;;4135;4136;1;13006;23.34;23.24;23,6;BCS1388054;4;14
009691;12.01.2021;04:57:16;Stop          ;04.12.2018;FEY;;LION;49;14500;7200;192;2;90;90;8400;3000;4058;4059;1;12999;27.24;29.94;31,6;BCS1388054;4;14
009691;12.01.2021;05:21:49;Cycle         ;04.12.2018;FEY;;LION;49;14500;7200;192;2;90;90;8400;3000;4065;4065;1;13000;27.44;28.14;30,4;BCS1388054;4;14
009691;13.01.2021;08:19:19;Stop          ;04.12.2018;FEY;;LION;49;14500;7200;224;4;98;100;8400;;4156;4156;1;13000;27.54;28.04;30,7;BCS1388054;4;14
009691;21.02.2021;13:45:29;Normalcharge  ;04.12.2018;FEY;;LION;49;14500;7200;2768;5;;;8400;3000;2990;2981;1;13016;23.54;23.24;27,8;BCS1388054;6;3
009691;06.04.2021;08:38:46;Normalcharge  ;04.12.2018;FEY;;LION;49;14500;7200;192;5;96;98;8400;;4124;4125;1;13022;20.74;25.14;28,1;BCS1388054;2;6
009691;06.04.2021;08:39:36;Stop          ;04.12.2018;FEY;;LION;49;14500;7200;192;5;96;98;8400;;4124;4125;1;13020;20.84;25.34;28,2;BCS1388054;2;6
009691;08.04.2021;07:57:57;Normalcharge  ;04.12.2018;FEY;;LION;49;14500;7200;192;5;96;98;8400;;4124;4124;1;13022;25.54;25.34;26,3;BCS1388054;2;6
009691;08.04.2021;07:59:45;Stop          ;04.12.2018;FEY;;LION;49;14500;7200;192;5;96;98;8400;;4124;4125;1;13019;25.54;25.84;26,8;BCS1388054;2;6
009691;08.04.2021;10:35:00;Normalcharge  ;04.12.2018;FEY;;LION;49;14500;7200;192;5;96;98;8400;;4124;4124;1;13022;25.94;25.74;28,1;BCS1388054;2;6
009691;08.04.2021;10:36:53;Stop          ;04.12.2018;FEY;;LION;49;14500;7200;192;5;96;98;8400;;4124;4125;1;13018;25.94;26.44;28,9;BCS1388054;2;6
009691;18.04.2021;08:33:36;Normalcharge  ;04.12.2018;FEY;;LION;49;14500;7200;192;5;96;98;8400;;4120;4121;1;13018;26.44;26.54;27,7;BCS1388054;2;6
009691;18.04.2021;08:33:44;Stop          ;04.12.2018;FEY;;LION;49;14500;7200;192;5;96;98;8400;;4120;4121;1;13018;26.44;26.64;27,8;BCS1388054;2;6
009691;04.08.2021;07:24:55;Normalcharge  ;04.12.2018;FEY;;LION;49;14500;7200;192;5;94;96;8400;;4089;4089;1;13010;30.74;30.94;31,5;BCS1388054;2;6
009691;04.08.2021;07:25:47;Stop          ;04.12.2018;FEY;;LION;49;14500;7200;192;5;94;96;8400;;4088;4089;1;13009;30.74;31.04;31,9;BCS1388054;2;6
009691;22.08.2021;11:08:04;Normalcharge  ;04.12.2018;FEY;;LION;49;14500;7200;192;5;93;95;8400;3000;4075;4076;1;12988;23.04;30.64;32,1;BCS1388054;4;2
009691;22.08.2021;11:08:37;Stop          ;04.12.2018;FEY;;LION;49;14500;7200;128;5;93;95;8400;3000;4120;4103;1;12699;23.14;31.74;32,5;BCS1388054;4;2
009691;14.10.2021;12:39:57;Normalcharge  ;04.12.2018;FEY;;LION;49;14500;7200;192;5;91;93;8400;3000;4060;4060;1;12997;25.54;26.74;27,9;BCS1388054;2;4
009691;14.10.2021;12:41:24;Stop          ;04.12.2018;FEY;;LION;49;14500;7200;128;5;91;93;8400;3000;4128;4101;1;12568;25.64;29.94;28,2;BCS1388054;2;4
009691;01.11.2021;09:52:11;Normalcharge  ;04.12.2018;FEY;;LION;49;14500;7200;192;5;87;89;8400;3000;4022;4023;1;13001;24.64;24.14;26,4;BCS1388054;3;16
009691;01.11.2021;09:53:27;Stop           ;04.12.2018;FEY;;LION;49;14500;7200;128;5;87;89;8400;3000;4111;4071;1;12592;24.74;26.94;27,1;BCS1388054;3;16
009691;01.11.2021;10:02:09;Normalcharge  ;04.12.2018;FEY;;LION;49;14500;7200;192;5;87;89;8400;3000;4024;4025;1;12997;24.94;26.24;29,5;BCS1388054;3;16
009691;01.11.2021;10:03:20;Stop           ;04.12.2018;FEY;;LION;49;14500;7200;128;5;87;89;8400;3000;4110;4072;1;12593;25.04;28.34;29,5;BCS1388054;3;16

File: 009692.txt
Serialnumber ; Date ; Time ; Action ; Date of Manufacture ; Manufacturer ; Battery Name ; Device-Chemistry ; Specification-Info ; Design-Capacity [mAh] ; Design-Voltage [mV] ; Battery Status ; Cycle Count ; SOC [%] ; Relativ SOC[%] ; Desired Voltage [mV]; Desired Current [mA]; Cell Voltage 1 [mV] ; Cell Voltage 2 [mV] ; Max_Error [%] ; Busvoltage[mV] ; Battery Temperature [°C] ; Charger Temperature [°C] ; Batterysystem ; Case ; PLace
009692;10.12.2019;15:29:01;Charge to 30% ;04.12.2018;FEY;;LION;49;14500;7200;224;49;93;100;8400;;4130;4128;1;12997;22.64;24.14;27,1;BCS1388054;5;13
009692;10.12.2019;20:48:54;Stop          ;04.12.2018;FEY;;LION;49;14500;7200;192;50;29;30;8400;3000;3560;3559;1;12996;33.94;35.04;33,1;BCS1388054;5;13
009692;11.12.2019;08:48:53;Fastcharge    ;04.12.2018;FEY;;LION;49;14500;7200;192;50;29;30;8400;3000;3568;3567;1;12995;26.74;28.14;31,9;BCS1388054;5;13
009692;11.12.2019;13:40:11;Stop          ;04.12.2018;FEY;;LION;49;14500;7200;224;50;94;100;8400;;4162;4161;1;12995;30.64;31.64;32,4;BCS1388054;5;13
009692;11.12.2019;15:46:40;Charge to 10% ;04.12.2018;FEY;;LION;49;14500;7200;224;50;96;100;8400;;4153;4152;1;12995;27.54;28.64;31,4;BCS1388054;5;13
009692;11.12.2019;22:49:07;Stop          ;04.12.2018;FEY;;LION;49;14500;7200;192;51;10;10;8400;3000;3358;3356;1;12995;34.74;35.44;33,5;BCS1388054;5;13
009692;12.12.2019;08:45:10;Normalcharge  ;04.12.2018;FEY;;LION;49;14500;7200;192;51;9;10;8400;3000;3367;3365;1;12994;26.84;28.34;31,7;BCS1388054;5;13
009692;12.12.2019;16:41:20;Stop          ;04.12.2018;FEY;;LION;49;14500;7200;224;51;96;100;8400;;4161;4161;1;12995;29.74;30.64;31,6;BCS1388054;5;13
009692;13.12.2019;10:48:05;Charge to 10% ;04.12.2018;FEY;;LION;49;14500;7200;224;51;96;100;8400;;4149;4149;1;12995;26.94;28.34;32,0;BCS1388054;5;13
009692;13.12.2019;15:40:55;Stop          ;04.12.2018;FEY;;LION;49;14500;7200;192;52;35;37;8400;3000;3502;3553;1;13498;33.44;41.94;34,6;BCS1388054;5;13
009692;16.12.2019;07:43:34;Charge to 10% ;04.12.2018;FEY;;LION;49;14500;7200;192;52;36;37;8400;3000;3596;3595;1;13031;22.64;26.74;31,7;BCS1388054;7;2
009692;16.12.2019;11:52:34;Stop          ;04.12.2018;FEY;;LION;49;14500;7200;192;52;10;10;8400;3000;3360;3359;1;13029;30.84;32.24;34,7;BCS1388054;7;2
009692;16.12.2019;14:44:25;Charge to 90% ;04.12.2018;FEY;;LION;49;14500;7200;192;52;10;10;8400;3000;3362;3361;1;13030;28.64;29.64;31,7;BCS1388054;7;2
009692;16.12.2019;20:53:58;Stop          ;04.12.2018;FEY;;LION;49;14500;7200;192;52;86;90;8400;3000;4061;4061;1;13031;30.84;31.14;32,1;BCS1388054;7;2
009692;17.12.2019;08:38:01;Fastcharge    ;04.12.2018;FEY;;LION;49;14500;7200;192;52;86;90;8400;3000;4046;4046;1;13030;25.94;28.04;31,6;BCS1388054;7;2
009692;17.12.2019;10:36:25;Stop          ;04.12.2018;FEY;;LION;49;14500;7200;224;52;97;100;8400;;4159;4158;1;13030;27.44;28.84;31,5;BCS1388054;7;2
009692;17.12.2019;13:38:44;Charge to 10% ;04.12.2018;FEY;;LION;49;14500;7200;224;52;97;100;8400;;4150;4149;1;13031;26.34;28.04;30,8;BCS1388054;7;2
009692;17.12.2019;20:42:03;Stop          ;04.12.2018;FEY;;LION;49;14500;7200;192;53;10;10;8400;3000;3353;3352;1;13030;32.64;31.84;32,6;BCS1388054;7;2
009692;18.12.2019;08:31:43;Fastcharge    ;04.12.2018;FEY;;LION;49;14500;7200;192;53;8;8;8400;3000;3363;3362;1;13032;26.14;28.14;31,6;BCS1388054;7;2
009692;18.12.2019;14:30:48;Stop          ;04.12.2018;FEY;;LION;49;14500;7200;224;53;94;100;8400;;4160;4158;1;13031;29.04;29.64;31,6;BCS1388054;7;2
009692;19.12.2019;08:24:17;Charge to 60% ;04.12.2018;FEY;;LION;49;14500;7200;224;53;95;100;8400;;4147;4145;1;13031;26.04;28.04;31,6;BCS1388054;7;2
009692;19.12.2019;11:28:26;Stop          ;04.12.2018;FEY;;LION;49;14500;7200;192;54;57;60;8400;3000;3764;3761;1;13029;32.74;34.04;35,1;BCS1388054;7;2
009692;19.12.2019;12:16:57;Cycle         ;04.12.2018;FEY;;LION;49;14500;7200;192;54;57;60;8400;3000;3777;3775;1;13030;29.44;29.84;32,7;BCS1388054;7;2
009692;20.12.2019;17:22:28;Stop          ;04.12.2018;FEY;;LION;49;14500;7200;224;55;93;99;8400;;4151;4150;1;13031;26.24;28.24;31,9;BCS1388054;7;2
009692;06.01.2020;06:35:02;Charge to 60% ;04.12.2018;FEY;;LION;49;14500;7200;224;55;92;99;8400;;4123;4122;1;13031;26.14;28.04;31,9;BCS1388054;7;2
009692;06.01.2020;09:29:52;Stop          ;04.12.2018;FEY;;LION;49;14500;7200;192;55;56;60;8400;3000;3765;3763;1;13030;31.94;33.04;34,0;BCS1388054;7;2
009692;06.01.2020;09:50:50;Fastcharge    ;04.12.2018;FEY;;LION;49;14500;7200;192;55;56;60;8400;3000;3775;3774;1;13031;30.44;30.24;32,7;BCS1388054;7;2
009692;06.01.2020;13:05:11;Stop          ;04.12.2018;FEY;;LION;49;14500;7200;224;55;94;100;8400;;4161;4160;1;13031;28.64;29.84;32,4;BCS1388054;7;2