Folder: Battery_sort_V2/reader/Batterieverzeichnis (part 5)

File: 009640.txt
Serialnumber ; Date ; Time ; Action ; Date of Manufacture ; Manufacturer ; Battery Name ; Device-Chemistry ; Specification-Info ; Design-Capacity [mAh] ; Design-Voltage [mV] ; Battery Status ; Cycle Count ; SOC [%] ; Relativ SOC[%] ; Desired Voltage [mV]; Desired Current [mA]; Cell Voltage 1 [mV] ; Cell Voltage 2 [mV] ; Max_Error [%] ; Busvoltage[mV] ; Battery Temperature [°C] ; Charger Temperature [°C] ; Batterysystem ; Case ; PLace
009640;10.12.2019;15:28:48;Ladung auf 30% ;04.12.2018;FEY;;LION;49;14500;7200;224;42;92;99;8400;;4132;4131;1;13011;23.04;24.04;27,1;BCS1388054;3;18
009640;10.12.2019;20:47:21;Stop           ;04.12.2018;FEY;;LION;49;14500;7200;192;43;29;30;8400;3000;3560;3560;1;13008;33.44;34.34;33,5;BCS1388054;3;18
009640;11.12.2019;08:48:36;Fastcharge    ;04.12.2018;FEY;;LION;49;14500;7200;192;43;29;31;8400;3000;3568;3569;1;13008;26.54;27.44;31,9;BCS1388054;3;18
009640;11.12.2019;13:39:41;Stop           ;04.12.2018;FEY;;LION;49;14500;7200;224;43;95;100;8400;;4161;4162;1;13006;29.84;30.54;32,5;BCS1388054;3;18
009640;11.12.2019;15:46:24;Ladung auf 10% ;04.12.2018;FEY;;LION;49;14500;7200;224;43;96;100;8400;;4153;4155;1;13009;27.24;28.14;31,4;BCS1388054;3;18
009640;11.12.2019;22:48:44;Stop           ;04.12.2018;FEY;;LION;49;14500;7200;192;44;10;10;8400;3000;3357;3358;1;13007;33.94;34.44;33,6;BCS1388054;3;18
009640;12.12.2019;08:44:58;Normalcharge  ;04.12.2018;FEY;;LION;49;14500;7200;192;44;9;10;8400;3000;3366;3367;1;13008;26.74;27.64;31,9;BCS1388054;3;18
009640;12.12.2019;16:39:24;Stop           ;04.12.2018;FEY;;LION;49;14500;7200;224;44;96;100;8400;;4161;4165;1;13009;29.24;30.04;31,7;BCS1388054;3;18
009640;13.12.2019;10:47:57;Ladung auf 10% ;04.12.2018;FEY;;LION;49;14500;7200;224;44;95;100;8400;;4150;4153;1;13008;26.74;27.74;32,0;BCS1388054;3;18
009640;13.12.2019;15:42:18;Stop           ;04.12.2018;FEY;;LION;49;14500;7200;192;45;34;36;8400;3000;3501;3554;1;13558;33.04;40.54;34,6;BCS1388054;3;18
009640;13.12.2019;15:42:20;Cycle          ;04.12.2018;FEY;;LION;49;14500;7200;192;45;34;36;8400;3000;3501;3554;1;13005;33.04;40.54;34,6;BCS1388054;3;18
009640;14.12.2019;22:36:33;Stop           ;04.12.2018;FEY;;LION;49;14500;7200;224;46;93;100;8400;;4153;4155;1;13009;26.74;27.54;31,6;BCS1388054;3;18
009640;16.12.2019;07:43:10;Ladung auf 10% ;04.12.2018;FEY;;LION;49;14500;7200;224;46;94;100;8400;;4147;4149;1;13009;26.34;27.04;31,9;BCS1388054;3;18
009640;16.12.2019;14:34:27;Stop           ;04.12.2018;FEY;;LION;49;14500;7200;192;47;10;10;8400;3000;3360;3363;1;13008;32.84;34.64;32,5;BCS1388054;3;18
009640;16.12.2019;14:44:07;Ladung auf 90% ;04.12.2018;FEY;;LION;49;14500;7200;192;47;10;10;8400;3000;3364;3367;1;13009;31.94;31.74;31,7;BCS1388054;3;18
009640;16.12.2019;20:48:39;Stop           ;04.12.2018;FEY;;LION;49;14500;7200;192;47;85;90;8400;3000;4059;4061;1;13008;31.64;33.44;31,9;BCS1388054;3;18
009640;17.12.2019;08:37:45;Fastcharge    ;04.12.2018;FEY;;LION;49;14500;7200;192;47;85;90;8400;3000;4046;4047;1;13009;26.54;27.44;31,5;BCS1388054;3;18
009640;17.12.2019;10:30:44;Stop           ;04.12.2018;FEY;;LION;49;14500;7200;224;47;95;100;8400;;4160;4160;1;13009;28.14;29.44;31,4;BCS1388054;3;18
009640;17.12.2019;13:38:28;Ladung auf 10% ;04.12.2018;FEY;;LION;49;14500;7200;224;47;95;100;8400;;4150;4150;1;13008;26.84;27.74;30,8;BCS1388054;3;18
009640;17.12.2019;20:32:04;Stop           ;04.12.2018;FEY;;LION;49;14500;7200;192;48;10;10;8400;3000;3359;3360;1;13008;34.24;36.04;34,6;BCS1388054;3;18
009640;18.12.2019;08:31:22;Fastcharge    ;04.12.2018;FEY;;LION;49;14500;7200;192;48;9;10;8400;3000;3370;3371;1;13008;26.64;27.64;31,6;BCS1388054;3;18
009640;18.12.2019;14:26:33;Stop           ;04.12.2018;FEY;;LION;49;14500;7200;224;48;94;100;8400;;4162;4160;1;13009;29.94;30.74;32,5;BCS1388054;3;18
009640;19.12.2019;08:23:54;Ladung auf 60% ;04.12.2018;FEY;;LION;49;14500;7200;224;48;95;100;8400;;4149;4148;1;13008;26.54;27.34;31,6;BCS1388054;3;18
009640;19.12.2019;11:28:29;Stop           ;04.12.2018;FEY;;LION;49;14500;7200;192;49;57;60;8400;3000;3762;3764;1;13007;34.24;37.94;35,1;BCS1388054;3;18
009640;19.12.2019;12:16:41;Cycle          ;04.12.2018;FEY;;LION;49;14500;7200;192;49;57;60;8400;3000;3778;3780;1;13008;30.14;30.34;32,7;BCS1388054;3;18
009640;20.12.2019;17:23:28;Stop           ;04.12.2018;FEY;;LION;49;14500;7200;224;50;94;100;8400;;4153;4152;1;13008;26.84;27.74;31,9;BCS1388054;3;18
009640;06.01.2020;06:34:46;Ladung auf 60% ;04.12.2018;FEY;;LION;49;14500;7200;224;50;92;99;8400;;4122;4121;1;13008;26.64;27.54;31,9;BCS1388054;3;18
009640;06.01.2020;09:29:20;Stop           ;04.12.2018;FEY;;LION;49;14500;7200;192;50;56;60;8400;3000;3759;3761;1;13008;33.34;37.54;34,2;BCS1388054;3;18
009640;06.01.2020;09:50:34;Fastcharge    ;04.12.2018;FEY;;LION;49;14500;7200;192;50;56;60;8400;3000;3774;3777;1;13009;31.44;31.14;32,7;BCS1388054;3;18
009640;06.01.2020;13:06:26;Stop           ;04.12.2018;FEY;;LION;49;14500;7200;224;50;94;100;8400;;4160;4161;1;13009;29.44;30.44;32,1;BCS1388054;3;18

File: 009647.txt
Serialnumber ; Date ; Time ; Action ; Date of Manufacture ; Manufacturer ; Battery Name ; Device-Chemistry ; Specification-Info ; Design-Capacity [mAh] ; Design-Voltage [mV] ; Battery Status ; Cycle Count ; SOC [%] ; Relativ SOC[%] ; Desired Voltage [mV]; Desired Current [mA]; Cell Voltage 1 [mV] ; Cell Voltage 2 [mV] ; Max_Error [%] ; Busvoltage[mV] ; Battery Temperature [°C] ; Charger Temperature [°C] ; Batterysystem ; Case ; PLace
009647;07.12.2020;04:14:25;Cycle          ;04.12.2018;FEY;;LION;49;14500;7200;192;3;98;98;8400;;4145;4146;1;12999;26.04;26.84;30,3;BCS1388054;3;12
009647;08.12.2020;16:19:50;Stop           ;04.12.2018;FEY;;LION;49;14500;7200;192;3;98;98;8400;;4143;4143;1;13000;27.94;28.44;31,9;BCS1388054;3;12
009647;12.01.2021;04:17:40;Charge to 90% ;04.12.2018;FEY;;LION;49;14500;7200;192;3;97;97;8400;;4128;4128;1;12987;23.24;22.64;23,6;BCS1388054;6;16
009647;12.01.2021;05:00:55;Stop          ;04.12.2018;FEY;;LION;49;14500;7200;192;4;92;90;8400;3000;4061;4060;1;12983;26.84;28.04;31,2;BCS1388054;6;16
009647;12.01.2021;05:21:57;Cycle         ;04.12.2018;FEY;;LION;49;14500;7200;192;4;92;90;8400;3000;4065;4064;1;12984;26.94;27.14;30,4;BCS1388054;6;16
009647;13.01.2021;08:31:18;Stop          ;04.12.2018;FEY;;LION;49;14500;7200;224;5;97;99;8400;;4156;4153;1;12983;27.04;27.04;31,1;BCS1388054;6;16
009647;03.03.2021;08:17:46;Normalcharge  ;04.12.2018;FEY;;LION;49;14500;7200;192;5;53;55;8400;3000;3700;3696;1;13034;23.24;24.24;23,6;BCS1388054;7;8
009647;03.03.2021;10:54:05;Stop          ;04.12.2018;FEY;;LION;49;14500;7200;128;5;85;88;8400;3000;4127;4077;1;12709;31.14;35.84;31,4;BCS1388054;7;8
009647;03.03.2021;10:55:49;Normalcharge  ;04.12.2018;FEY;;LION;49;14500;7200;192;5;85;88;8400;3000;4038;4036;1;13028;31.04;33.24;30,6;BCS1388054;7;8
009647;03.03.2021;17:03:24;Stop          ;04.12.2018;FEY;;LION;49;14500;7200;224;5;98;100;8400;;4152;4152;1;13029;26.64;28.54;31,4;BCS1388054;7;8
009647;04.04.2021;11:50:39;Normalcharge  ;04.12.2018;FEY;;LION;49;14500;7200;192;6;53;55;8400;3000;3696;3694;1;13004;25.14;27.54;28,1;BCS1388054;1;3
009647;04.04.2021;11:51:54;Stop          ;04.12.2018;FEY;;LION;49;14500;7200;128;6;54;55;8400;3000;3784;3734;1;12575;25.14;30.44;28,8;BCS1388054;1;3
009647;05.04.2021;09:37:37;Charge to 60% ;04.12.2018;FEY;;LION;49;14500;7200;192;6;54;55;8400;3000;3699;3696;1;12999;25.34;27.04;26,0;BCS1388054;1;15
009647;05.04.2021;10:01:53;Stop          ;04.12.2018;FEY;;LION;49;14500;7200;192;6;58;60;8400;3000;3764;3759;1;12995;27.24;32.24;31,2;BCS1388054;1;15
009647;22.08.2021;11:08:18;Normalcharge  ;04.12.2018;FEY;;LION;49;14500;7200;192;6;54;55;8400;3000;3702;3699;1;13005;29.94;30.44;32,2;BCS1388054;7;9
009647;22.08.2021;11:08:51;Stop          ;04.12.2018;FEY;;LION;49;14500;7200;128;6;54;55;8400;3000;3727;3710;1;12818;29.94;31.54;32,6;BCS1388054;7;9
009647;25.08.2021;08:15:19;Charge to 60% ;04.12.2018;FEY;;LION;49;14500;7200;192;6;54;55;8400;3000;3702;3699;1;13002;30.44;31.34;33,5;BCS1388054;2;6
009647;25.08.2021;10:43:16;Stop          ;04.12.2018;FEY;;LION;49;14500;7200;192;6;58;60;8400;3000;3753;3749;1;13002;32.74;33.24;36,4;BCS1388054;2;6
009647;01.11.2021;09:51:48;Normalcharge  ;04.12.2018;FEY;;LION;49;14500;7200;192;6;56;57;8400;3000;3721;3718;1;13022;26.04;25.14;26,3;BCS1388054;7;15
009647;01.11.2021;09:53:51;Stop          ;04.12.2018;FEY;;LION;49;14500;7200;128;6;56;57;8400;3000;3817;3766;1;12658;26.14;29.54;27,4;BCS1388054;7;15
009647;01.11.2021;10:02:29;Normalcharge  ;04.12.2018;FEY;;LION;49;14500;7200;192;6;56;57;8400;3000;3726;3723;1;13017;26.24;27.34;29,5;BCS1388054;7;15
009647;01.11.2021;10:03:04;Stop          ;04.12.2018;FEY;;LION;49;14500;7200;128;6;56;57;8400;3000;3790;3750;1;12682;26.24;28.64;29,3;BCS1388054;7;15
009647;01.11.2021;10:27:23;Normalcharge  ;04.12.2018;FEY;;LION;49;14500;7200;192;6;56;57;8400;3000;3726;3723;1;13019;26.44;25.94;27,7;BCS1388054;7;15
009647;01.11.2021;10:29:22;Stop          ;04.12.2018;FEY;;LION;49;14500;7200;128;6;56;58;8400;3000;3822;3772;1;12660;26.54;30.24;28,6;BCS1388054;7;15

File: 009650.txt
Serialnumber ; Date ; Time ; Action ; Date of Manufacture ; Manufacturer ; Battery Name ; Device-Chemistry ; Specification-Info ; Design-Capacity [mAh] ; Design-Voltage [mV] ; Battery Status ; Cycle Count ; SOC [%] ; Relativ SOC[%] ; Desired Voltage [mV]; Desired Current [mA]; Cell Voltage 1 [mV] ; Cell Voltage 2 [mV] ; Max_Error [%] ; Busvoltage[mV] ; Battery Temperature [°C] ; Charger Temperature [°C] ; Batterysystem ; Case ; PLace
009650;07.12.2020;04:14:32;Cycle         ;04.12.2018;FEY;;LION;49;14500;7200;16576;4;97;98;;;4142;4141;1;13007;25.54;27.04;30,3;BCS1388054;5;11
009650;08.12.2020;16:20:01;Stop          ;04.12.2018;FEY;;LION;49;14500;7200;16576;4;97;98;;;4139;4139;1;13005;27.54;28.54;31,7;BCS1388054;5;11
009650;12.01.2021;04:17:40;Charge to 90% ;04.12.2018;FEY;;LION;49;14500;7200;16576;4;96;97;;;4125;4125;1;12998;22.84;23.84;23,6;BCS1388054;6;18
009650;12.01.2021;05:00:55;Stop          ;04.12.2018;FEY;;LION;49;14500;7200;192;4;90;90;8400;3000;4062;4062;1;12992;27.14;29.44;31,2;BCS1388054;6;18
009650;12.01.2021;05:21:57;Cycle         ;04.12.2018;FEY;;LION;49;14500;7200;192;4;90;90;8400;3000;4065;4065;1;12994;26.84;28.34;30,4;BCS1388054;6;18
009650;13.01.2021;08:31:18;Stop          ;04.12.2018;FEY;;LION;49;14500;7200;224;5;98;100;8400;;4155;4155;1;12993;26.54;28.34;31,1;BCS1388054;6;18
009650;21.02.2021;13:43:32;Normalcharge  ;04.12.2018;FEY;;LION;49;14500;7200;224;5;96;99;8400;;4130;4130;1;12989;23.14;25.24;27,5;BCS1388054;2;15
009650;21.02.2021;19:27:00;Stop          ;04.12.2018;FEY;;LION;49;14500;7200;224;5;96;99;8400;;4130;4130;1;12990;26.84;28.54;31,1;BCS1388054;2;15
009650;04.04.2021;11:50:33;Normalcharge  ;04.12.2018;FEY;;LION;49;14500;7200;192;6;53;54;8400;3000;3688;3689;1;13005;24.84;26.64;27,9;BCS1388054;2;1
009650;04.04.2021;11:51:48;Stop          ;04.12.2018;FEY;;LION;49;14500;7200;128;6;53;54;8400;3000;3778;3729;1;12621;24.84;29.34;28,6;BCS1388054;2;1
009650;05.04.2021;09:37:46;Charge to 60% ;04.12.2018;FEY;;LION;49;14500;7200;192;6;53;54;8400;3000;3690;3691;1;13005;24.94;25.74;26,1;BCS1388054;2;14
009650;05.04.2021;10:03:48;Stop          ;04.12.2018;FEY;;LION;49;14500;7200;128;6;58;60;8400;3000;3766;3768;1;13001;27.14;33.54;31,4;BCS1388054;2;14
009650;22.08.2021;11:08:13;Normalcharge  ;04.12.2018;FEY;;LION;49;14500;7200;192;6;54;55;8400;3000;3699;3699;1;13002;29.54;29.74;32,2;BCS1388054;6;4
009650;22.08.2021;11:08:46;Stop          ;04.12.2018;FEY;;LION;49;14500;7200;128;6;54;55;8400;3000;3729;3713;1;12821;29.64;30.94;32,5;BCS1388054;6;4

File: 009651.txt
Serialnumber ; Date ; Time ; Action ; Date of Manufacture ; Manufacturer ; Battery Name ; Device-Chemistry ; Specification-Info ; Design-Capacity [mAh] ; Design-Voltage [mV] ; Battery Status ; Cycle Count ; SOC [%] ; Relativ SOC[%] ; Desired Voltage [mV]; Desired Current [mA]; Cell Voltage 1 [mV] ; Cell Voltage 2 [mV] ; Max_Error [%] ; Busvoltage[mV] ; Battery Temperature [°C] ; Charger Temperature [°C] ; Batterysystem ; Case ; PLace
009651;07.12.2020;04:14:25;Cycle          ;04.12.2018;FEY;;LION;49;14500;7200;16576;2;97;98;;;4147;4146;1;12998;25.94;26.04;30,3;BCS1388054;3;11
009651;08.12.2020;16:19:50;Stop           ;04.12.2018;FEY;;LION;49;14500;7200;16576;2;98;98;;;4144;4143;1;12998;28.04;27.64;31,9;BCS1388054;3;11
009651;12.01.2021;04:17:47;Charge to 90% ;04.12.2018;FEY;;LION;49;14500;7200;16576;2;96;97;;;4129;4129;1;13034;23.24;24.04;23,8;BCS1388054;7;5
009651;12.01.2021;04:57:19;Stop          ;04.12.2018;FEY;;LION;49;14500;7200;192;2;90;90;8400;3000;4061;4060;1;13029;26.84;28.44;31,5;BCS1388054;7;5
009651;12.01.2021;05:22:01;Cycle         ;04.12.2018;FEY;;LION;49;14500;7200;192;2;90;90;8400;3000;4065;4065;1;13030;26.84;27.24;30,4;BCS1388054;7;5
009651;13.01.2021;08:19:29;Stop          ;04.12.2018;FEY;;LION;49;14500;7200;224;4;97;100;8400;;4154;4153;1;13030;26.54;27.34;30,7;BCS1388054;7;5
009651;03.03.2021;08:17:46;Normalcharge  ;04.12.2018;FEY;;LION;49;14500;7200;192;4;62;64;8400;3000;3786;3787;1;13031;23.34;22.94;23,6;BCS1388054;7;6
009651;03.03.2021;10:54:05;Stop          ;04.12.2018;FEY;;LION;49;14500;7200;128;4;93;97;8400;3000;4181;4143;1;12703;29.64;29.74;31,4;BCS1388054;7;6
009651;03.03.2021;10:55:49;Normalcharge  ;04.12.2018;FEY;;LION;49;14500;7200;192;4;94;97;8400;3000;4106;4105;1;13023;29.64;28.14;30,6;BCS1388054;7;6
009651;03.03.2021;17:03:24;Stop          ;04.12.2018;FEY;;LION;49;14500;7200;224;4;97;100;8400;;4151;4149;1;13024;26.24;26.14;31,4;BCS1388054;7;6
009651;04.04.2021;11:49:55;Normalcharge  ;04.12.2018;FEY;;LION;49;14500;7200;192;5;53;55;8400;3000;3691;3692;1;13021;25.14;26.04;27,5;BCS1388054;7;10
009651;04.04.2021;11:51:17;Stop          ;04.12.2018;FEY;;LION;49;14500;7200;128;5;53;55;8400;3000;3780;3732;1;12728;25.14;29.14;28,4;BCS1388054;7;10
009651;05.04.2021;09:37:46;Charge to 60% ;04.12.2018;FEY;;LION;49;14500;7200;192;5;53;55;8400;3000;3694;3694;1;12993;25.14;26.14;26,1;BCS1388054;2;15
009651;05.04.2021;10:03:48;Stop          ;04.12.2018;FEY;;LION;49;14500;7200;192;5;57;60;8400;3000;3755;3756;1;12989;27.24;31.54;31,4;BCS1388054;2;15
009651;22.08.2021;11:08:13;Normalcharge  ;04.12.2018;FEY;;LION;49;14500;7200;192;5;53;55;8400;3000;3700;3700;1;13005;30.04;30.54;32,2;BCS1388054;6;3
009651;22.08.2021;11:08:46;Stop          ;04.12.2018;FEY;;LION;49;14500;7200;128;5;53;55;8400;3000;3735;3714;1;12825;30.04;31.84;32,5;BCS1388054;6;3
009651;25.08.2021;08:15:08;Charge to 60% ;04.12.2018;FEY;;LION;49;14500;7200;192;5;53;55;8400;3000;3700;3700;1;12992;30.54;31.74;33,4;BCS1388054;4;14
009651;25.08.2021;12:59:17;Stop          ;04.12.2018;FEY;;LION;49;14500;7200;192;5;57;60;8400;3000;3748;3749;1;12991;32.84;34.24;36,6;BCS1388054;4;14
009651;01.11.2021;09:52:20;Normalcharge  ;04.12.2018;FEY;;LION;49;14500;7200;192;5;55;57;8400;3000;3718;3718;1;12991;26.04;26.44;26,4;BCS1388054;1;2
009651;01.11.2021;09:53:13;Stop          ;04.12.2018;FEY;;LION;49;14500;7200;128;5;55;57;8400;3000;3802;3754;1;12477;26.04;28.94;26,8;BCS1388054;1;2
009651;01.11.2021;10:01:59;Normalcharge  ;04.12.2018;FEY;;LION;49;14500;7200;192;5;55;57;8400;3000;3720;3720;1;12988;26.24;28.64;29,5;BCS1388054;1;2
009651;01.11.2021;10:03:29;Stop          ;04.12.2018;FEY;;LION;49;14500;7200;128;5;55;57;8400;3000;3810;3764;1;12469;26.24;31.54;29,3;BCS1388054;1;2
009651;01.11.2021;10:27:58;Normalcharge  ;04.12.2018;FEY;;LION;49;14500;7200;192;5;55;57;8400;3000;3723;3724;1;12989;26.44;27.04;27,8;BCS1388054;1;2
009651;01.11.2021;10:28:31;Stop          ;04.12.2018;FEY;;LION;49;14500;7200;128;5;55;57;8400;3000;3753;3737;1;12687;26.44;28.34;28,1;BCS1388054;1;2

File: 009655.txt
Serialnumber ; Date ; Time ; Action ; Date of Manufacture ; Manufacturer ; Battery Name ; Device-Chemistry ; Specification-Info ; Design-Capacity [mAh] ; Design-Voltage [mV] ; Battery Status ; Cycle Count ; SOC [%] ; Relativ SOC[%] ; Desired Voltage [mV]; Desired Current [mA]; Cell Voltage 1 [mV] ; Cell Voltage 2 [mV] ; Max_Error [%] ; Busvoltage[mV] ; Battery Temperature [°C] ; Charger Temperature [°C] ; Batterysystem ; Case ; PLace
009655;30.11.2020;09:42:55;Stop          ;04.12.2018;FEY;;LION;49;14500;7200;16576;3;95;96;;;4110;4109;1;13014;27.74;28.34;31,7;BCS1388054;7;15
009655;07.12.2020;04:14:40;Cycle         ;04.12.2018;FEY;;LION;49;14500;7200;16576;3;95;96;;;4107;4107;1;13016;25.84;27.04;30,3;BCS1388054;7;12
009655;08.12.2020;16:20:20;Stop          ;04.12.2018;FEY;;LION;49;14500;7200;16576;3;94;95;;;4106;4105;1;13016;27.44;28.14;31,9;BCS1388054;7;12
009655;07.02.2021;08:47:07;Normalcharge  ;04.12.2018;FEY;;LION;49;14500;7200;192;3;78;81;8400;3000;3945;3944;1;13009;23.64;25.44;29,2;BCS1388054;5;4
009655;07.02.2021;11:50:11;Stop          ;04.12.2018;FEY;;LION;49;14500;7200;224;3;98;100;8400;;4156;4156;1;13009;25.84;26.74;30,0;BCS1388054;5;4
009655;03.03.2021;08:17:21;Normalcharge  ;04.12.2018;FEY;;LION;49;14500;7200;192;4;90;92;8400;3000;4062;4062;1;13006;23.24;22.34;23,5;BCS1388054;3;16
009655;04.03.2021;07:53:40;Stop           ;04.12.2018;FEY;;LION;49;14500;7200;224;4;98;100;8400;;4149;4149;1;13001;26.54;26.74;31,5;BCS1388054;3;16
009655;04.04.2021;11:50:02;Normalcharge  ;04.12.2018;FEY;;LION;49;14500;7200;192;4;52;54;8400;3000;3687;3687;1;12995;24.94;26.04;27,7;BCS1388054;6;18
009655;04.04.2021;11:51:24;Stop          ;04.12.2018;FEY;;LION;49;14500;7200;128;4;53;54;8400;3000;3776;3727;1;12640;25.04;29.64;28,5;BCS1388054;6;18
009655;05.04.2021;09:37:46;Charge to 60% ;04.12.2018;FEY;;LION;49;14500;7200;192;4;53;54;8400;3000;3689;3689;1;13010;25.04;25.94;26,1;BCS1388054;2;16
009655;05.04.2021;10:03:48;Stop          ;04.12.2018;FEY;;LION;49;14500;7200;128;4;58;60;8400;3000;3851;3806;1;13005;27.34;33.04;31,4;BCS1388054;2;16
009655;22.08.2021;11:37:21;Normalcharge  ;04.12.2018;FEY;;LION;49;14500;7200;192;4;36;37;8400;3000;3571;3571;1;12995;21.94;28.94;31,9;BCS1388054;5;7
009655;22.08.2021;11:38:04;Stop          ;04.12.2018;FEY;;LION;49;14500;7200;128;4;36;37;8400;3000;3637;3599;1;12735;22.14;30.64;32,0;BCS1388054;5;7

File: 009659.txt
Serialnumber ; Date ; Time ; Action ; Date of Manufacture ; Manufacturer ; Battery Name ; Device-Chemistry ; Specification-Info ; Design-Capacity [mAh] ; Design-Voltage [mV] ; Battery Status ; Cycle Count ; SOC [%] ; Relativ SOC[%] ; Desired Voltage [mV]; Desired Current [mA]; Cell Voltage 1 [mV] ; Cell Voltage 2 [mV] ; Max_Error [%] ; Busvoltage[mV] ; Battery Temperature [°C] ; Charger Temperature [°C] ; Batterysystem ; Case ; PLace
009659;07.02.2021;08:47:07;Normalcharge  ;03.12.2018;FEY;;LION;49;14500;7200;192;3;85;86;8400;3000;4005;4005;1;13013;22.84;26.54;29,2;BCS1388054;5;2
009659;07.02.2021;11:50:11;Stop          ;03.12.2018;FEY;;LION;49;14500;7200;224;3;99;100;8400;;4154;4153;1;13013;25.14;28.04;30,0;BCS1388054;5;2
009659;03.03.2021;08:17:17;Normalcharge  ;03.12.2018;FEY;;LION;49;14500;7200;192;3;92;95;8400;3000;4087;4088;1;13008;22.54;23.04;23,5;BCS1388054;2;11
009659;04.03.2021;07:53:46;Stop          ;03.12.2018;FEY;;LION;49;14500;7200;224;3;98;100;8400;;4148;4147;1;13000;25.74;26.74;31,6;BCS1388054;2;11
009659;04.04.2021;11:50:39;Normalcharge  ;03.12.2018;FEY;;LION;49;14500;7200;192;3;53;55;8400;3000;3691;3692;1;12995;24.34;26.84;28,1;BCS1388054;1;14
009659;04.04.2021;11:51:54;Stop          ;03.12.2018;FEY;;LION;49;14500;7200;128;3;53;55;8400;3000;3776;3731;1;12555;24.44;30.04;28,8;BCS1388054;1;14
009659;05.04.2021;09:37:46;Charge to 60% ;03.12.2018;FEY;;LION;49;14500;7200;192;3;53;55;8400;3000;3693;3694;1;13004;24.54;26.44;26,1;BCS1388054;2;17
009659;05.04.2021;10:03:48;Stop          ;03.12.2018;FEY;;LION;49;14500;7200;192;3;58;60;8400;3000;3760;3761;1;12999;26.64;31.34;31,4;BCS1388054;2;17
009659;22.08.2021;11:37:21;Normalcharge  ;03.12.2018;FEY;;LION;49;14500;7200;704;4;2;2;8400;3000;3199;3214;1;13006;21.24;28.74;31,9;BCS1388054;5;4
009659;22.08.2021;11:38:04;Stop          ;03.12.2018;FEY;;LION;49;14500;7200;128;4;2;2;8400;3000;3358;3326;1;12760;21.34;30.54;32,0;BCS1388054;5;4
009659;25.08.2021;08:15:02;Charge to 60% ;03.12.2018;FEY;;LION;49;14500;7200;704;4;2;2;8400;3000;3194;3209;1;13003;29.74;32.04;33,2;BCS1388054;5;4
009659;25.08.2021;13:03:31;Stop          ;03.12.2018;FEY;;LION;49;14500;7200;192;4;58;60;8400;3000;3786;3787;1;13001;33.24;34.34;36,6;BCS1388054;5;4

File: 009661.txt
Serialnumber ; Date ; Time ; Action ; Date of Manufacture ; Manufacturer ; Battery Name ; Device-Chemistry ; Specification-Info ; Design-Capacity [mAh] ; Design-Voltage [mV] ; Battery Status ; Cycle Count ; SOC [%] ; Relativ SOC[%] ; Desired Voltage [mV]; Desired Current [mA]; Cell Voltage 1 [mV] ; Cell Voltage 2 [mV] ; Max_Error [%] ; Busvoltage[mV] ; Battery Temperature [°C] ; Charger Temperature [°C] ; Batterysystem ; Case ; PLace
009661;07.12.2020;04:14:21;Cycle         ;03.12.2018;FEY;;LION;49;14500;7200;224;3;97;99;8400;;4137;4136;1;13009;24.94;27.54;30,3;BCS1388054;2;9
009661;08.12.2020;16:19:44;Stop          ;03.12.2018;FEY;;LION;49;14500;7200;224;4;98;100;8400;;4153;4153;1;13009;27.14;29.14;31,9;BCS1388054;2;9
009661;03.03.2021;08:17:08;Normalcharge  ;03.12.2018;FEY;;LION;49;14500;7200;192;4;95;98;8400;;4117;4117;1;12998;22.44;23.04;23,5;BCS1388054;1;5
009661;04.03.2021;07:53:50;Stop          ;03.12.2018;FEY;;LION;49;14500;7200;192;4;95;98;8400;;4116;4116;1;12992;25.34;26.64;31,6;BCS1388054;1;5
009661;04.04.2021;11:50:10;Normalcharge  ;03.12.2018;FEY;;LION;49;14500;7200;192;4;51;52;8400;3000;3674;3673;1;13018;24.24;25.94;27,8;BCS1388054;5;9
009661;04.04.2021;11:51:30;Stop          ;03.12.2018;FEY;;LION;49;14500;7200;128;4;51;53;8400;3000;3762;3712;1;12679;24.24;28.84;28,5;BCS1388054;5;9
009661;05.04.2021;09:38:11;Charge to 60% ;03.12.2018;FEY;;LION;49;14500;7200;192;4;51;53;8400;3000;3675;3675;1;12992;24.34;25.64;26,3;BCS1388054;4;11
009661;05.04.2021;10:13:52;Stop          ;03.12.2018;FEY;;LION;49;14500;7200;192;4;58;60;8400;3000;3757;3759;1;12989;27.14;28.54;32,1;BCS1388054;4;11
009661;22.08.2021;11:37:30;Normalcharge  ;03.12.2018;FEY;;LION;49;14500;7200;192;4;54;56;8400;3000;3700;3700;1;13008;20.54;28.24;31,9;BCS1388054;3;15
009661;22.08.2021;11:38:19;Stop           ;03.12.2018;FEY;;LION;49;14500;7200;128;4;54;56;8400;3000;3787;3741;1;12566;20.74;30.54;32,1;BCS1388054;3;15

File: 009662.txt
Serialnumber ; Date ; Time ; Action ; Date of Manufacture ; Manufacturer ; Battery Name ; Device-Chemistry ; Specification-Info ; Design-Capacity [mAh] ; Design-Voltage [mV] ; Battery Status ; Cycle Count ; SOC [%] ; Relativ SOC[%] ; Desired Voltage [mV]; Desired Current [mA]; Cell Voltage 1 [mV] ; Cell Voltage 2 [mV] ; Max_Error [%] ; Busvoltage[mV] ; Battery Temperature [°C] ; Charger Temperature [°C] ; Batterysystem ; Case ; PLace
009662;30.11.2020;09:42:55;Stop          ;03.12.2018;FEY;;LION;49;14500;7200;224;3;98;100;8400;;4155;4154;1;13006;27.14;28.74;31,7;BCS1388054;7;9
009662;07.02.2021;08:46:54;Normalcharge  ;03.12.2018;FEY;;LION;49;14500;7200;192;3;92;94;8400;3000;4078;4078;1;13004;23.04;24.94;29,2;BCS1388054;3;18
009662;07.02.2021;11:52:16;Stop           ;03.12.2018;FEY;;LION;49;14500;7200;224;3;98;100;8400;;4151;4150;1;13004;25.24;26.64;29,7;BCS1388054;3;18
009662;03.03.2021;08:17:29;Normalcharge  ;03.12.2018;FEY;;LION;49;14500;7200;192;3;84;87;8400;3000;3995;3994;1;13007;22.54;23.14;23,5;BCS1388054;4;13
009662;03.03.2021;10:32:46;Stop          ;03.12.2018;FEY;;LION;49;14500;7200;224;3;98;100;8400;;4158;4157;1;13001;28.04;29.64;32,0;BCS1388054;4;13
009662;04.04.2021;11:50:02;Normalcharge  ;03.12.2018;FEY;;LION;49;14500;7200;192;4;53;55;8400;3000;3693;3693;1;13003;24.34;25.24;27,7;BCS1388054;6;4
009662;04.04.2021;11:51:24;Stop          ;03.12.2018;FEY;;LION;49;14500;7200;128;4;53;55;8400;3000;3783;3733;1;12679;24.34;28.54;28,5;BCS1388054;6;4
009662;05.04.2021;09:37:46;Charge to 60% ;03.12.2018;FEY;;LION;49;14500;7200;192;4;53;55;8400;3000;3695;3695;1;12990;24.44;26.24;26,1;BCS1388054;2;18
009662;05.04.2021;10:03:48;Stop          ;03.12.2018;FEY;;LION;49;14500;7200;192;4;58;60;8400;3000;3764;3762;1;12986;26.64;31.04;31,4;BCS1388054;2;18
009662;04.08.2021;07:25:01;Normalcharge  ;03.12.2018;FEY;;LION;49;14500;7200;192;4;54;56;8400;3000;3700;3700;1;13008;21.14;30.44;31,5;BCS1388054;1;16
009662;04.08.2021;07:25:57;Stop          ;03.12.2018;FEY;;LION;49;14500;7200;128;4;54;56;8400;3000;3792;3742;1;12789;21.34;32.44;31,9;BCS1388054;1;16
009662;25.08.2021;08:15:19;Charge to 60% ;03.12.2018;FEY;;LION;49;14500;7200;192;4;54;56;8400;3000;3699;3698;1;12988;29.84;31.14;33,5;BCS1388054;2;11
009662;25.08.2021;10:43:16;Stop          ;03.12.2018;FEY;;LION;49;14500;7200;192;4;58;60;8400;3000;3749;3747;1;12988;32.24;33.24;36,4;BCS1388054;2;11
009662;01.11.2021;09:51:48;Normalcharge  ;03.12.2018;FEY;;LION;49;14500;7200;192;4;56;57;8400;3000;3717;3717;1;13026;25.34;26.44;26,3;BCS1388054;7;10
009662;01.11.2021;09:53:51;Stop          ;03.12.2018;FEY;;LION;49;14500;7200;128;4;56;58;8400;3000;3812;3764;1;12659;25.44;30.54;27,4;BCS1388054;7;10
009662;01.11.2021;10:02:29;Normalcharge  ;03.12.2018;FEY;;LION;49;14500;7200;192;4;56;58;8400;3000;3722;3722;1;13021;25.54;28.04;29,5;BCS1388054;7;10
009662;01.11.2021;10:03:04;Stop          ;03.12.2018;FEY;;LION;49;14500;7200;128;4;56;58;8400;3000;3781;3748;1;12696;25.54;29.24;29,3;BCS1388054;7;10
009662;01.11.2021;10:27:23;Normalcharge  ;03.12.2018;FEY;;LION;49;14500;7200;192;4;56;58;8400;3000;3723;3722;1;13023;25.74;27.24;27,7;BCS1388054;7;10
009662;01.11.2021;10:29:22;Stop          ;03.12.2018;FEY;;LION;49;14500;7200;128;4;56;58;8400;3000;3818;3769;1;12659;25.84;31.24;28,6;BCS1388054;7;10