Folder: Battery_sort_V2/reader/Batterieverzeichnis (part 8)

File: 009732.txt
Serialnumber ; Date ; Time ; Action ; Date of Manufacture ; Manufacturer ; Battery Name ; Device-Chemistry ; Specification-Info ; Design-Capacity [mAh] ; Design-Voltage [mV] ; Battery Status ; Cycle Count ; SOC [%] ; Relativ SOC[%] ; Desired Voltage [mV]; Desired Current [mA]; Cell Voltage 1 [mV] ; Cell Voltage 2 [mV] ; Max_Error [%] ; Busvoltage[mV] ; Battery Temperature [°C] ; Charger Temperature [°C] ; Batterysystem ; Case ; PLace
009732;07.12.2020;04:14:40;Cycle         ;04.12.2018;FEY;;LION;49;14500;7200;192;2;96;97;8400;;4134;4135;1;13021;25.64;26.24;30,3;BCS1388054;7;6
009732;08.12.2020;16:20:20;Stop          ;04.12.2018;FEY;;LION;49;14500;7200;192;2;96;97;8400;;4132;4133;1;13023;27.44;27.54;31,9;BCS1388054;7;6
009732;12.01.2021;04:17:47;Charge to 90% ;04.12.2018;FEY;;LION;49;14500;7200;192;2;95;96;8400;;4120;4121;1;13036;23.04;24.44;23,8;BCS1388054;7;8
009732;12.01.2021;04:57:19;Stop          ;04.12.2018;FEY;;LION;49;14500;7200;192;3;90;90;8400;3000;4061;4061;1;13030;26.34;29.54;31,5;BCS1388054;7;8
009732;12.01.2021;05:22:01;Cycle         ;04.12.2018;FEY;;LION;49;14500;7200;192;3;90;90;8400;3000;4065;4065;1;13031;26.54;28.34;30,4;BCS1388054;7;8
009732;13.01.2021;08:19:29;Stop          ;04.12.2018;FEY;;LION;49;14500;7200;224;4;96;100;8400;;4155;4156;1;13031;26.74;28.34;30,7;BCS1388054;7;8
009732;21.02.2021;13:44:56;Normalcharge  ;04.12.2018;FEY;;LION;49;14500;7200;192;5;40;42;8400;3000;3611;3611;1;13013;22.64;23.24;27,7;BCS1388054;5;16
009732;21.02.2021;19:31:36;Stop          ;04.12.2018;FEY;;LION;49;14500;7200;224;5;96;100;8400;;4158;4157;1;13009;27.44;28.24;30,6;BCS1388054;5;16
009732;06.04.2021;08:39:03;Normalcharge  ;04.12.2018;FEY;;LION;49;14500;7200;224;5;96;99;8400;;4128;4128;1;12998;21.24;25.14;28,1;BCS1388054;4;5
009732;06.04.2021;08:39:53;Stop          ;04.12.2018;FEY;;LION;49;14500;7200;224;5;96;99;8400;;4128;4127;1;12996;21.34;25.44;28,4;BCS1388054;4;5
009732;08.04.2021;07:58:12;Normalcharge  ;04.12.2018;FEY;;LION;49;14500;7200;224;5;96;99;8400;;4128;4127;1;12999;25.24;23.54;26,3;BCS1388054;4;5
009732;08.04.2021;07:59:34;Stop          ;04.12.2018;FEY;;LION;49;14500;7200;224;5;96;99;8400;;4127;4127;1;12980;25.24;25.94;26,7;BCS1388054;4;5
009732;08.04.2021;10:36:07;Normalcharge  ;04.12.2018;FEY;;LION;49;14500;7200;224;5;96;99;8400;;4127;4127;1;12998;25.44;26.04;28,5;BCS1388054;4;5
009732;08.04.2021;10:37:03;Stop          ;04.12.2018;FEY;;LION;49;14500;7200;224;5;96;99;8400;;4128;4127;1;12975;25.44;26.34;29,0;BCS1388054;4;5
009732;18.04.2021;08:34:04;Normalcharge  ;04.12.2018;FEY;;LION;49;14500;7200;224;5;96;99;8400;;4124;4123;1;12997;26.14;26.94;27,9;BCS1388054;4;5
009732;18.04.2021;08:34:10;Stop          ;04.12.2018;FEY;;LION;49;14500;7200;224;5;96;99;8400;;4124;4124;1;12996;26.14;26.94;28,1;BCS1388054;4;5
009732;04.08.2021;07:24:46;Normalcharge  ;04.12.2018;FEY;;LION;49;14500;7200;192;5;93;96;8400;;4093;4092;1;12993;30.34;30.84;31,5;BCS1388054;4;5
009732;04.08.2021;07:25:30;Stop          ;04.12.2018;FEY;;LION;49;14500;7200;192;5;93;96;8400;;4093;4092;1;12972;30.24;31.14;31,7;BCS1388054;4;5
009732;22.08.2021;11:37:17;Normalcharge  ;04.12.2018;FEY;;LION;49;14500;7200;192;5;93;96;8400;;4088;4087;1;12998;22.84;28.64;31,9;BCS1388054;6;12
009732;22.08.2021;11:37:57;Stop          ;04.12.2018;FEY;;LION;49;14500;7200;192;5;93;96;8400;;4088;4087;1;12857;22.94;28.74;32,0;BCS1388054;6;12
009732;12.10.2021;12:59:04;Normalcharge  ;04.12.2018;FEY;;LION;49;14500;7200;192;5;88;90;8400;3000;4036;4035;1;13023;23.84;26.54;28,5;BCS1388054;7;13
009732;12.10.2021;12:59:37;Stop          ;04.12.2018;FEY;;LION;49;14500;7200;128;5;88;90;8400;3000;4051;4044;1;12934;23.84;27.74;28,6;BCS1388054;7;13
009732;14.10.2021;12:40:13;Normalcharge  ;04.12.2018;FEY;;LION;49;14500;7200;192;5;87;90;8400;3000;4035;4034;1;12993;23.74;25.54;27,9;BCS1388054;5;13
009732;14.10.2021;12:41:50;Stop          ;04.12.2018;FEY;;LION;49;14500;7200;128;5;87;90;8400;3000;4113;4081;1;12638;23.84;29.04;28,5;BCS1388054;5;13
009732;28.12.2021;09:01:29;Normalcharge  ;04.12.2018;FEY;;LION;49;14500;7200;192;5;69;71;8400;3000;3856;3855;1;13010;23.54;24.54;25,4;BCS1388054;4;1
009732;28.12.2021;09:02:38;Stop          ;04.12.2018;FEY;;LION;49;14500;7200;128;5;69;71;8400;3000;3948;3899;1;12625;23.54;27.24;25,8;BCS1388054;4;1
009732;07.02.2022;08:50:37;Normalcharge  ;04.12.2018;FEY;;LION;49;14500;7200;192;5;69;71;8400;3000;3849;3848;1;13035;22.24;21.74;25,0;BCS1388054;7;1
009732;07.02.2022;14:21:07;Stop          ;04.12.2018;FEY;;LION;49;14500;7200;224;5;98;100;8400;;4148;4148;1;13028;25.24;26.74;28,9;BCS1388054;7;1
009732;14.03.2022;10:33:51;Normalcharge  ;04.12.2018;FEY;;LION;49;14500;7200;224;5;96;99;8400;;4128;4128;1;13005;24.14;24.14;25,3;BCS1388054;5;6
009732;14.03.2022;10:38:12;Stop          ;04.12.2018;FEY;;LION;49;14500;7200;224;5;96;99;8400;;4128;4128;1;12701;24.24;25.14;28,1;BCS1388054;5;6

File: 009734.txt
Serialnumber ; Date ; Time ; Action ; Date of Manufacture ; Manufacturer ; Battery Name ; Device-Chemistry ; Specification-Info ; Design-Capacity [mAh] ; Design-Voltage [mV] ; Battery Status ; Cycle Count ; SOC [%] ; Relativ SOC[%] ; Desired Voltage [mV]; Desired Current [mA]; Cell Voltage 1 [mV] ; Cell Voltage 2 [mV] ; Max_Error [%] ; Busvoltage[mV] ; Battery Temperature [°C] ; Charger Temperature [°C] ; Batterysystem ; Case ; PLace
009734;30.11.2020;09:42:55;Stop          ;04.12.2018;FEY;;LION;49;14500;7200;16576;3;99;98;;;4148;4145;1;13026;27.94;29.64;31,7;BCS1388054;7;1
009734;12.01.2021;04:16:00;Charge to 90% ;04.12.2018;FEY;;LION;49;14500;7200;16576;3;97;97;;;4129;4126;1;13011;23.34;21.14;23,0;BCS1388054;1;3
009734;12.01.2021;04:16:03;Stop          ;04.12.2018;FEY;;LION;49;14500;7200;16576;3;97;97;;;4129;4126;1;13012;23.34;23.44;23,0;BCS1388054;1;3
009734;12.01.2021;04:17:15;Charge to 90% ;04.12.2018;FEY;;LION;49;14500;7200;16576;3;97;97;;;4128;4126;1;13010;23.34;24.34;23,5;BCS1388054;1;3
009734;12.01.2021;04:55:18;Stop          ;04.12.2018;FEY;;LION;49;14500;7200;192;4;91;90;8400;3000;4059;4056;1;13003;26.64;31.14;31,7;BCS1388054;1;3
009734;12.01.2021;05:21:33;Cycle         ;04.12.2018;FEY;;LION;49;14500;7200;192;4;91;90;8400;3000;4066;4062;1;13006;26.94;28.84;30,6;BCS1388054;1;3
009734;13.01.2021;08:18:34;Stop          ;04.12.2018;FEY;;LION;49;14500;7200;224;5;98;100;8400;;4155;4155;1;13004;26.94;28.74;30,7;BCS1388054;1;3
009734;22.02.2021;17:31:46;Normalcharge  ;04.12.2018;FEY;;LION;49;14500;7200;192;5;63;65;8400;3000;3807;3805;1;12991;26.14;25.74;31,6;BCS1388054;1;11
009734;22.02.2021;23:06:28;Stop          ;04.12.2018;FEY;;LION;49;14500;7200;224;5;98;100;8400;;4153;4153;1;12992;26.64;26.24;30,6;BCS1388054;1;11
009734;06.04.2021;08:38:50;Normalcharge  ;04.12.2018;FEY;;LION;49;14500;7200;224;5;97;99;8400;;4129;4129;1;12997;20.94;25.34;28,1;BCS1388054;3;8
009734;06.04.2021;08:39:42;Stop           ;04.12.2018;FEY;;LION;49;14500;7200;224;5;97;99;8400;;4129;4129;1;12997;21.04;25.64;28,2;BCS1388054;3;8
009734;08.04.2021;07:58:01;Normalcharge  ;04.12.2018;FEY;;LION;49;14500;7200;224;5;96;99;8400;;4128;4128;1;12998;25.54;25.74;26,4;BCS1388054;3;8
009734;08.04.2021;07:59:40;Stop           ;04.12.2018;FEY;;LION;49;14500;7200;224;5;96;99;8400;;4128;4128;1;12996;25.64;26.44;26,8;BCS1388054;3;8
009734;08.04.2021;10:35:05;Normalcharge  ;04.12.2018;FEY;;LION;49;14500;7200;224;5;96;99;8400;;4128;4128;1;12998;25.84;26.04;28,1;BCS1388054;3;8
009734;08.04.2021;10:36:56;Stop           ;04.12.2018;FEY;;LION;49;14500;7200;224;5;96;99;8400;;4128;4128;1;12996;25.84;26.94;29,0;BCS1388054;3;8
009734;18.04.2021;08:33:50;Normalcharge  ;04.12.2018;FEY;;LION;49;14500;7200;224;5;96;99;8400;;4125;4125;1;12997;26.44;27.14;27,8;BCS1388054;3;8
009734;18.04.2021;08:33:58;Stop           ;04.12.2018;FEY;;LION;49;14500;7200;224;5;96;99;8400;;4125;4125;1;12996;26.44;27.24;27,9;BCS1388054;3;8
009734;04.08.2021;07:24:50;Normalcharge  ;04.12.2018;FEY;;LION;49;14500;7200;192;5;94;96;8400;;4094;4093;1;12992;30.74;31.34;31,6;BCS1388054;3;8
009734;04.08.2021;07:25:37;Stop           ;04.12.2018;FEY;;LION;49;14500;7200;192;5;94;96;8400;;4094;4093;1;12991;30.74;31.74;31,7;BCS1388054;3;8
009734;22.08.2021;11:08:08;Normalcharge  ;04.12.2018;FEY;;LION;49;14500;7200;192;6;68;70;8400;3000;3851;3849;1;13010;22.84;28.84;32,1;BCS1388054;5;8
009734;22.08.2021;11:08:41;Stop          ;04.12.2018;FEY;;LION;49;14500;7200;128;6;68;70;8400;3000;3879;3862;1;12865;22.94;30.04;32,5;BCS1388054;5;8
009734;14.10.2021;12:39:51;Normalcharge  ;04.12.2018;FEY;;LION;49;14500;7200;192;6;44;45;8400;3000;3621;3620;1;12990;25.84;26.44;27,9;BCS1388054;1;1
009734;14.10.2021;12:41:14;Stop          ;04.12.2018;FEY;;LION;49;14500;7200;128;6;44;46;8400;3000;3708;3658;1;12486;25.94;29.84;28,2;BCS1388054;1;1
009734;01.11.2021;09:52:20;Normalcharge  ;04.12.2018;FEY;;LION;49;14500;7200;192;6;44;45;8400;3000;3620;3619;1;12991;26.24;26.24;26,4;BCS1388054;1;1
009734;01.11.2021;09:53:13;Stop          ;04.12.2018;FEY;;LION;49;14500;7200;128;6;44;45;8400;3000;3702;3656;1;12481;26.24;28.54;26,8;BCS1388054;1;1
009734;01.11.2021;10:01:59;Normalcharge  ;04.12.2018;FEY;;LION;49;14500;7200;192;6;44;45;8400;3000;3622;3620;1;12988;26.34;28.14;29,5;BCS1388054;1;1
009734;01.11.2021;10:03:29;Stop          ;04.12.2018;FEY;;LION;49;14500;7200;128;6;44;45;8400;3000;3708;3659;1;12473;26.44;30.94;29,3;BCS1388054;1;1
009734;01.11.2021;10:27:58;Normalcharge  ;04.12.2018;FEY;;LION;49;14500;7200;192;6;44;45;8400;3000;3623;3622;1;12989;26.64;26.74;27,8;BCS1388054;1;1
009734;01.11.2021;10:28:31;Stop          ;04.12.2018;FEY;;LION;49;14500;7200;128;6;44;45;8400;3000;3659;3635;1;12692;26.64;27.94;28,1;BCS1388054;1;1
009734;01.11.2021;10:31:47;Charge to 60% ;04.12.2018;FEY;;LION;49;14500;7200;192;6;44;45;8400;3000;3623;3622;1;12988;26.74;23.34;29,9;BCS1388054;1;1
009734;01.11.2021;11:39:51;Stop          ;04.12.2018;FEY;;LION;49;14500;7200;128;6;58;60;8400;3000;3749;3750;1;12988;29.94;33.04;32,5;BCS1388054;1;1
009734;09.02.2022;08:16:46;Normalcharge  ;04.12.2018;FEY;;LION;49;14500;7200;192;6;54;55;8400;3000;3697;3696;1;13011;22.74;22.34;23,1;BCS1388054;3;5
009734;09.02.2022;12:49:54;Stop           ;04.12.2018;FEY;;LION;49;14500;7200;224;6;98;100;8400;;4163;4164;1;13006;26.34;26.04;29,9;BCS1388054;3;5
009734;14.03.2022;12:14:26;Normalcharge  ;04.12.2018;FEY;;LION;49;14500;7200;192;6;96;98;8400;;4123;4123;1;13019;24.34;24.84;27,5;BCS1388054;5;18
009734;14.03.2022;12:18:30;Stop          ;04.12.2018;FEY;;LION;49;14500;7200;192;6;96;98;8400;;4123;4123;1;13016;24.44;25.54;29,5;BCS1388054;5;18

File: 009736.txt
Serialnumber ; Date ; Time ; Action ; Date of Manufacture ; Manufacturer ; Battery Name ; Device-Chemistry ; Specification-Info ; Design-Capacity [mAh] ; Design-Voltage [mV] ; Battery Status ; Cycle Count ; SOC [%] ; Relativ SOC[%] ; Desired Voltage [mV]; Desired Current [mA]; Cell Voltage 1 [mV] ; Cell Voltage 2 [mV] ; Max_Error [%] ; Busvoltage[mV] ; Battery Temperature [°C] ; Charger Temperature [°C] ; Batterysystem ; Case ; PLace
009736;07.12.2020;04:14:32;Cycle         ;04.12.2018;FEY;;LION;49;14500;7200;16576;4;98;98;;;4152;4151;1;13003;25.84;27.44;30,3;BCS1388054;5;1
009736;08.12.2020;16:20:01;Stop          ;04.12.2018;FEY;;LION;49;14500;7200;16576;4;98;98;;;4149;4149;1;13002;27.94;29.04;31,7;BCS1388054;5;1
009736;12.01.2021;04:17:47;Charge to 90% ;04.12.2018;FEY;;LION;49;14500;7200;16576;4;97;97;;;4132;4131;1;13023;23.14;23.04;23,8;BCS1388054;7;11
009736;12.01.2021;04:57:20;Stop          ;04.12.2018;FEY;;LION;49;14500;7200;192;4;90;90;8400;3000;4059;4059;1;13018;26.74;27.34;31,5;BCS1388054;7;11
009736;12.01.2021;05:22:01;Cycle         ;04.12.2018;FEY;;LION;49;14500;7200;192;4;90;90;8400;3000;4065;4065;1;13019;26.74;26.14;30,4;BCS1388054;7;11
009736;13.01.2021;08:19:29;Stop          ;04.12.2018;FEY;;LION;49;14500;7200;224;5;98;100;8400;;4155;4156;1;13018;26.54;26.24;30,7;BCS1388054;7;11
009736;06.04.2021;08:39:21;Normalcharge  ;04.12.2018;FEY;;LION;49;14500;7200;192;5;95;98;8400;;4114;4114;1;13036;21.44;25.54;28,1;BCS1388054;7;5
009736;06.04.2021;08:40:08;Stop          ;04.12.2018;FEY;;LION;49;14500;7200;192;5;95;98;8400;;4114;4114;1;12958;21.44;25.84;28,5;BCS1388054;7;5
009736;08.04.2021;07:59:03;Normalcharge  ;04.12.2018;FEY;;LION;49;14500;7200;192;5;95;97;8400;;4114;4114;1;13037;25.24;25.74;26,4;BCS1388054;7;5
009736;08.04.2021;07:59:16;Stop          ;04.12.2018;FEY;;LION;49;14500;7200;192;5;95;97;8400;;4114;4114;1;13033;25.24;25.74;26,6;BCS1388054;7;5
009736;08.04.2021;10:36:43;Normalcharge  ;04.12.2018;FEY;;LION;49;14500;7200;192;5;95;97;8400;;4114;4114;1;13035;25.44;26.64;28,9;BCS1388054;7;5
009736;08.04.2021;10:37:15;Stop          ;04.12.2018;FEY;;LION;49;14500;7200;192;5;95;97;8400;;4114;4114;1;12975;25.44;26.74;29,2;BCS1388054;7;5
009736;18.04.2021;08:34:46;Normalcharge  ;04.12.2018;FEY;;LION;49;14500;7200;192;5;95;97;8400;;4110;4111;1;13034;26.14;27.34;28,2;BCS1388054;7;5
009736;18.04.2021;08:34:54;Stop          ;04.12.2018;FEY;;LION;49;14500;7200;192;5;95;97;8400;;4111;4111;1;13031;26.14;27.34;28,4;BCS1388054;7;5
009736;04.08.2021;07:24:29;Normalcharge  ;04.12.2018;FEY;;LION;49;14500;7200;192;5;94;97;8400;;4082;4082;1;13032;30.14;30.94;31,5;BCS1388054;7;5
009736;04.08.2021;07:25:08;Stop          ;04.12.2018;FEY;;LION;49;14500;7200;192;5;94;97;8400;;4082;4082;1;12978;30.14;31.24;31,6;BCS1388054;7;5
009736;14.10.2021;12:39:51;Normalcharge  ;04.12.2018;FEY;;LION;49;14500;7200;192;5;86;88;8400;3000;4021;4022;1;12990;25.14;26.64;27,9;BCS1388054;1;9
009736;14.10.2021;12:41:14;Stop          ;04.12.2018;FEY;;LION;49;14500;7200;128;5;86;89;8400;3000;4105;4068;1;12467;25.24;29.54;28,2;BCS1388054;1;9
009736;28.12.2021;09:01:33;Normalcharge  ;04.12.2018;FEY;;LION;49;14500;7200;192;5;78;80;8400;3000;3918;3918;1;13015;24.04;25.24;25,4;BCS1388054;5;15
009736;28.12.2021;09:02:46;Stop          ;04.12.2018;FEY;;LION;49;14500;7200;128;5;78;80;8400;3000;4014;3968;1;12656;24.04;28.24;26,0;BCS1388054;5;15
009736;07.02.2022;08:50:47;Normalcharge  ;04.12.2018;FEY;;LION;49;14500;7200;192;5;78;80;8400;3000;3909;3909;1;13007;22.34;22.24;25,0;BCS1388054;6;14
009736;13.02.2022;10:58:40;Normalcharge  ;04.12.2018;FEY;;LION;49;14500;7200;224;5;98;100;8400;;4139;4139;1;12998;22.64;22.94;26,1;BCS1388054;4;2
009736;13.02.2022;10:59:13;Stop          ;04.12.2018;FEY;;LION;49;14500;7200;224;5;98;100;8400;;4139;4139;1;12998;22.64;23.54;26,1;BCS1388054;4;2
009736;14.03.2022;10:33:46;Normalcharge  ;04.12.2018;FEY;;LION;49;14500;7200;192;5;90;93;8400;3000;4066;4066;1;13003;24.24;24.24;25,1;BCS1388054;6;4
009736;14.03.2022;10:38:06;Stop          ;04.12.2018;FEY;;LION;49;14500;7200;128;5;91;93;8400;3000;4152;4125;1;12665;24.44;28.94;28,1;BCS1388054;6;4

File: 009737.txt
Serialnumber ; Date ; Time ; Action ; Date of Manufacture ; Manufacturer ; Battery Name ; Device-Chemistry ; Specification-Info ; Design-Capacity [mAh] ; Design-Voltage [mV] ; Battery Status ; Cycle Count ; SOC [%] ; Relativ SOC[%] ; Desired Voltage [mV]; Desired Current [mA]; Cell Voltage 1 [mV] ; Cell Voltage 2 [mV] ; Max_Error [%] ; Busvoltage[mV] ; Battery Temperature [°C] ; Charger Temperature [°C] ; Batterysystem ; Case ; PLace
009737;07.12.2020;04:14:21;Cycle         ;04.12.2018;FEY;;LION;49;14500;7200;224;2;97;99;8400;;4141;4140;1;13003;25.84;27.94;30,3;BCS1388054;2;5
009737;08.12.2020;16:19:44;Stop          ;04.12.2018;FEY;;LION;49;14500;7200;224;3;98;100;8400;;4152;4154;1;13004;27.84;29.34;31,9;BCS1388054;2;5
009737;03.03.2021;08:17:29;Normalcharge  ;04.12.2018;FEY;;LION;49;14500;7200;192;4;82;85;8400;3000;3976;3977;1;13020;23.24;22.54;23,5;BCS1388054;4;18
009737;03.03.2021;10:32:46;Stop          ;04.12.2018;FEY;;LION;49;14500;7200;224;4;98;100;8400;;4164;4164;1;13014;28.24;28.94;32,0;BCS1388054;4;18
009737;04.04.2021;11:50:22;Normalcharge  ;04.12.2018;FEY;;LION;49;14500;7200;192;4;53;55;8400;3000;3692;3693;1;13017;25.24;25.04;27,9;BCS1388054;4;18
009737;04.04.2021;11:51:36;Stop          ;04.12.2018;FEY;;LION;49;14500;7200;128;4;53;55;8400;3000;3780;3732;1;12711;25.24;28.04;28,6;BCS1388054;4;18
009737;05.04.2021;09:38:00;Ladung auf 60% ;04.12.2018;FEY;;LION;49;14500;7200;192;4;53;55;8400;3000;3694;3695;1;13007;25.14;25.34;26,3;BCS1388054;3;4
009737;05.04.2021;10:06:07;Stop           ;04.12.2018;FEY;;LION;49;14500;7200;192;4;58;60;8400;3000;3756;3758;1;13004;27.24;28.14;31,4;BCS1388054;3;4
009737;22.08.2021;11:08:19;Normalcharge  ;04.12.2018;FEY;;LION;49;14500;7200;192;4;53;55;8400;3000;3699;3700;1;13021;29.94;30.14;32,2;BCS1388054;7;13
009737;22.08.2021;11:08:51;Stop          ;04.12.2018;FEY;;LION;49;14500;7200;128;4;53;55;8400;3000;3729;3713;1;12864;29.94;31.34;32,6;BCS1388054;7;13
009737;25.08.2021;08:15:15;Ladung auf 60% ;04.12.2018;FEY;;LION;49;14500;7200;192;4;53;55;8400;3000;3699;3700;1;12997;30.54;31.44;33,4;BCS1388054;3;12
009737;25.08.2021;08:40:44;Stop           ;04.12.2018;FEY;;LION;49;14500;7200;192;4;58;60;8400;3000;3752;3754;1;12997;32.34;33.54;36,1;BCS1388054;3;12
009737;01.11.2021;09:52:00;Normalcharge  ;04.12.2018;FEY;;LION;49;14500;7200;192;4;55;57;8400;3000;3717;3718;1;13015;25.94;27.04;26,3;BCS1388054;5;5
009737;01.11.2021;09:53:40;Stop          ;04.12.2018;FEY;;LION;49;14500;7200;128;4;55;57;8400;3000;3811;3764;1;12597;25.94;30.34;27,3;BCS1388054;5;5
009737;01.11.2021;10:02:19;Normalcharge  ;04.12.2018;FEY;;LION;49;14500;7200;192;4;55;57;8400;3000;3722;3722;1;13010;26.14;28.44;29,5;BCS1388054;5;5
009737;01.11.2021;10:03:11;Stop          ;04.12.2018;FEY;;LION;49;14500;7200;128;4;55;57;8400;3000;3810;3762;1;12594;26.14;30.34;29,3;BCS1388054;5;5
009737;01.11.2021;10:27:35;Normalcharge  ;04.12.2018;FEY;;LION;49;14500;7200;192;4;55;57;8400;3000;3723;3724;1;13016;26.34;27.74;27,8;BCS1388054;5;5
009737;01.11.2021;10:29:14;Stop          ;04.12.2018;FEY;;LION;49;14500;7200;128;4;56;58;8400;3000;3818;3769;1;12599;26.44;31.04;28,6;BCS1388054;5;5
009737;01.11.2021;10:32:33;Charge to 60% ;04.12.2018;FEY;;LION;49;14500;7200;192;4;56;58;8400;3000;3728;3729;1;13009;26.44;28.94;29,9;BCS1388054;5;5
009737;01.11.2021;11:11:47;Stop          ;04.12.2018;FEY;;LION;49;14500;7200;192;4;58;60;8400;3000;3752;3753;1;13010;27.74;30.04;32,5;BCS1388054;5;5
009737;07.02.2022;08:50:57;Normalcharge  ;04.12.2018;FEY;;LION;49;14500;7200;192;4;55;57;8400;3000;3712;3712;1;13020;22.34;22.54;25,1;BCS1388054;4;4
009737;07.02.2022;13:19:09;Stop          ;04.12.2018;FEY;;LION;49;14500;7200;224;4;97;100;8400;;4161;4161;1;13016;27.24;27.04;29,7;BCS1388054;4;4
009737;14.03.2022;12:14:21;Normalcharge  ;04.12.2018;FEY;;LION;49;14500;7200;192;5;67;69;8400;3000;3848;3849;1;12990;24.24;25.74;27,5;BCS1388054;6;13
009737;14.03.2022;12:18:18;Stop          ;04.12.2018;FEY;;LION;49;14500;7200;128;5;68;70;8400;3000;3950;3904;1;12799;24.44;32.44;29,3;BCS1388054;6;13
009737;29.03.2022;08:20:58;Normalcharge  ;04.12.2018;FEY;;LION;49;14500;7200;192;5;53;55;8400;3000;3692;3693;1;13012;24.94;25.14;25,7;BCS1388054;4;1
009737;29.03.2022;08:21:35;Stop          ;04.12.2018;FEY;;LION;49;14500;7200;128;5;53;55;8400;3000;3726;3709;1;12756;24.94;26.54;26,0;BCS1388054;4;1
009737;29.03.2022;08:22:11;Normalcharge  ;04.12.2018;FEY;;LION;49;14500;7200;128;5;53;55;8400;3000;3693;3697;1;13011;24.94;26.44;26,3;BCS1388054;4;1
009737;29.03.2022;08:22:29;Stop          ;04.12.2018;FEY;;LION;49;14500;7200;128;5;53;55;8400;3000;3713;3705;1;12922;24.94;26.94;26,4;BCS1388054;4;1

File: 009738.txt
Serialnumber ; Date ; Time ; Action ; Date of Manufacture ; Manufacturer ; Battery Name ; Device-Chemistry ; Specification-Info ; Design-Capacity [mAh] ; Design-Voltage [mV] ; Battery Status ; Cycle Count ; SOC [%] ; Relativ SOC[%] ; Desired Voltage [mV]; Desired Current [mA]; Cell Voltage 1 [mV] ; Cell Voltage 2 [mV] ; Max_Error [%] ; Busvoltage[mV] ; Battery Temperature [°C] ; Charger Temperature [°C] ; Batterysystem ; Case ; PLace
009738;30.11.2020;09:42:55;Stop          ;04.12.2018;FEY;;LION;49;14500;7200;224;4;97;100;8400;;4153;4154;1;13022;27.14;28.24;31,7;BCS1388054;7;18
009738;07.02.2021;08:46:43;Normalcharge  ;04.12.2018;FEY;;LION;49;14500;7200;192;4;94;97;8400;;4102;4102;1;13001;23.44;25.54;29,2;BCS1388054;1;17
009738;07.02.2021;11:52:07;Stop          ;04.12.2018;FEY;;LION;49;14500;7200;192;4;94;97;8400;;4102;4102;1;13002;25.34;26.74;29,7;BCS1388054;1;17
009738;03.03.2021;08:17:40;Normalcharge  ;04.12.2018;FEY;;LION;49;14500;7200;192;4;65;67;8400;3000;3824;3824;1;13018;22.94;24.14;23,6;BCS1388054;6;17
009738;03.03.2021;11:56:52;Stop          ;04.12.2018;FEY;;LION;49;14500;7200;224;4;97;100;8400;;4164;4166;1;13012;28.24;30.84;31,7;BCS1388054;6;17
009738;04.04.2021;11:50:02;Normalcharge  ;04.12.2018;FEY;;LION;49;14500;7200;192;5;52;54;8400;3000;3685;3684;1;13001;24.74;25.64;27,7;BCS1388054;6;1
009738;04.04.2021;11:51:24;Stop          ;04.12.2018;FEY;;LION;49;14500;7200;128;5;52;54;8400;3000;3770;3724;1;12683;24.74;28.94;28,5;BCS1388054;6;1
009738;05.04.2021;09:38:11;Charge to 60% ;04.12.2018;FEY;;LION;49;14500;7200;192;5;52;54;8400;3000;3687;3686;1;12998;24.74;25.94;26,3;BCS1388054;4;5
009738;05.04.2021;10:13:52;Stop          ;04.12.2018;FEY;;LION;49;14500;7200;192;5;58;60;8400;3000;3753;3752;1;12993;27.04;28.34;32,1;BCS1388054;4;5
009738;22.08.2021;11:07:51;Normalcharge  ;04.12.2018;FEY;;LION;49;14500;7200;192;5;40;41;8400;3000;3599;3599;1;12995;22.34;29.94;32,0;BCS1388054;1;17
009738;22.08.2021;11:08:24;Stop          ;04.12.2018;FEY;;LION;49;14500;7200;128;5;40;41;8400;3000;3645;3620;1;12574;22.44;31.04;32,4;BCS1388054;1;17
009738;25.08.2021;08:14:57;Charge to 60% ;04.12.2018;FEY;;LION;49;14500;7200;192;5;40;41;8400;3000;3601;3600;1;12991;30.04;30.74;33,2;BCS1388054;6;5
009738;25.08.2021;09:50:39;Stop          ;04.12.2018;FEY;;LION;49;14500;7200;192;5;58;60;8400;3000;3737;3738;1;12990;34.24;32.94;36,4;BCS1388054;6;5
009738;01.11.2021;09:52:11;Normalcharge  ;04.12.2018;FEY;;LION;49;14500;7200;2768;6;;;8400;3000;3030;3036;1;13007;24.24;25.84;26,4;BCS1388054;3;13
009738;01.11.2021;09:53:27;Stop           ;04.12.2018;FEY;;LION;49;14500;7200;2768;6;;;8400;3000;3030;3035;1;12617;24.24;27.94;27,1;BCS1388054;3;13
009738;01.11.2021;10:02:09;Normalcharge  ;04.12.2018;FEY;;LION;49;14500;7200;2768;6;;;8400;3000;3029;3035;1;13000;24.64;30.34;29,5;BCS1388054;3;13
009738;01.11.2021;10:03:20;Stop           ;04.12.2018;FEY;;LION;49;14500;7200;2768;6;;;8400;3000;3030;3035;1;12611;24.64;30.44;29,5;BCS1388054;3;13
009738;01.11.2021;10:18:16;Normalcharge  ;04.12.2018;FEY;;LION;49;14500;7200;2768;6;;;8400;3000;3030;3035;1;13001;25.04;27.44;28,2;BCS1388054;3;13
009738;01.11.2021;10:18:56;Stop           ;04.12.2018;FEY;;LION;49;14500;7200;2768;6;;;8400;3000;3030;3035;1;12625;25.04;28.84;28,2;BCS1388054;3;13
009738;01.11.2021;10:27:50;Normalcharge  ;04.12.2018;FEY;;LION;49;14500;7200;2768;6;;;8400;3000;3030;3035;1;13002;25.24;27.64;27,8;BCS1388054;3;13
009738;01.11.2021;10:29:05;Stop           ;04.12.2018;FEY;;LION;49;14500;7200;144;6;;;8400;3000;3084;3071;1;12578;25.34;29.64;28,5;BCS1388054;3;13
009738;01.11.2021;10:32:24;Ladung auf 60% ;04.12.2018;FEY;;LION;49;14500;7200;720;6;;;8400;3000;3034;3039;1;13001;25.44;28.34;29,7;BCS1388054;3;13
009738;01.11.2021;15:19:46;Stop           ;04.12.2018;FEY;;LION;49;14500;7200;192;6;56;60;8400;3000;3796;3795;1;13001;30.24;31.94;32,7;BCS1388054;3;13
009738;09.02.2022;08:16:56;Normalcharge  ;04.12.2018;FEY;;LION;49;14500;7200;192;6;55;58;8400;3000;3728;3728;1;13010;22.24;23.04;23,1;BCS1388054;2;8
009738;09.02.2022;12:43:52;Stop          ;04.12.2018;FEY;;LION;49;14500;7200;224;6;96;100;8400;;4160;4162;1;13003;26.34;27.44;29,9;BCS1388054;2;8
009738;14.03.2022;10:34:06;Normalcharge  ;04.12.2018;FEY;;LION;49;14500;7200;224;6;94;99;8400;;4130;4132;1;13005;23.94;24.54;25,4;BCS1388054;3;18
009738;14.03.2022;10:38:27;Stop           ;04.12.2018;FEY;;LION;49;14500;7200;224;6;94;99;8400;;4130;4132;1;12614;24.14;25.54;28,1;BCS1388054;3;18