Folder: Battery_sort_V2/reader/Batterieverzeichnis_new (part 10)

File: 009696.txt
Serialnumber ; Date ; Time ; Action ; Date of Manufacture ; Manufacturer ; Battery Name ; Device-Chemistry ; Specification-Info ; Design-Capacity [mAh] ; Design-Voltage [mV] ; Battery Status ; Cycle Count ; SOC [%] ; Relativ SOC[%] ; Desired Voltage [mV]; Desired Current [mA]; Cell Voltage 1 [mV] ; Cell Voltage 2 [mV] ; Max_Error [%] ; Busvoltage[mV] ; Battery Temperature [°C] ; Charger Temperature [°C] ; Batterysystem ; Case ; PLace
009696;10.12.2019;15:29:01;Charge to 30% ;04.12.2018;FEY;;LION;49;14500;7200;224;39;94;100;8400;;4131;4131;1;13025;22.94;24.44;27,1;BCS1388054;5;18
009696;10.12.2019;20:48:54;Stop          ;04.12.2018;FEY;;LION;49;14500;7200;192;40;29;30;8400;3000;3557;3557;1;13023;32.94;34.84;33,1;BCS1388054;5;18
009696;11.12.2019;08:48:53;Fastcharge    ;04.12.2018;FEY;;LION;49;14500;7200;192;40;29;30;8400;3000;3567;3567;1;13022;26.74;28.04;31,9;BCS1388054;5;18
009696;11.12.2019;13:40:11;Stop          ;04.12.2018;FEY;;LION;49;14500;7200;224;40;95;100;8400;;4164;4163;1;13023;29.54;31.34;32,4;BCS1388054;5;18
009696;11.12.2019;15:46:40;Charge to 10% ;04.12.2018;FEY;;LION;49;14500;7200;224;40;96;100;8400;;4154;4154;1;13023;27.34;28.44;31,4;BCS1388054;5;18
009696;11.12.2019;22:49:07;Stop          ;04.12.2018;FEY;;LION;49;14500;7200;192;41;10;10;8400;3000;3348;3350;1;13022;33.64;36.54;33,5;BCS1388054;5;18
009696;12.12.2019;08:45:10;Normalcharge  ;04.12.2018;FEY;;LION;49;14500;7200;192;41;9;10;8400;3000;3362;3363;1;13023;26.84;28.24;31,7;BCS1388054;5;18
009696;12.12.2019;16:41:20;Stop          ;04.12.2018;FEY;;LION;49;14500;7200;224;41;96;100;8400;;4162;4162;1;13023;28.94;30.44;31,6;BCS1388054;5;18
009696;13.12.2019;10:48:05;Charge to 10% ;04.12.2018;FEY;;LION;49;14500;7200;224;41;96;100;8400;;4149;4149;1;13023;26.84;28.24;32,0;BCS1388054;5;18
009696;13.12.2019;15:40:55;Stop          ;04.12.2018;FEY;;LION;49;14500;7200;192;42;35;37;8400;3000;3505;3556;1;13541;32.34;40.44;34,6;BCS1388054;5;18
009696;13.12.2019;15:41:42;Cycle         ;04.12.2018;FEY;;LION;49;14500;7200;192;42;35;37;8400;3000;3585;3585;1;13023;32.34;37.84;34,5;BCS1388054;5;18
009696;14.12.2019;22:39:35;Stop          ;04.12.2018;FEY;;LION;49;14500;7200;224;43;93;99;8400;;4152;4152;1;13023;26.84;28.14;31,7;BCS1388054;5;18
009696;16.12.2019;07:43:20;Charge to 10% ;04.12.2018;FEY;;LION;49;14500;7200;224;43;94;100;8400;;4146;4146;1;13023;26.54;27.54;31,9;BCS1388054;5;18
009696;16.12.2019;14:34:29;Stop          ;04.12.2018;FEY;;LION;49;14500;7200;192;44;10;10;8400;3000;3359;3361;1;13023;32.04;35.94;32,5;BCS1388054;5;18
009696;16.12.2019;14:44:17;Charge to 90% ;04.12.2018;FEY;;LION;49;14500;7200;192;44;10;10;8400;3000;3365;3367;1;13023;31.14;31.24;31,9;BCS1388054;5;18
009696;16.12.2019;20:48:55;Stop          ;04.12.2018;FEY;;LION;49;14500;7200;192;44;85;90;8400;3000;4061;4062;1;13025;31.34;34.34;31,9;BCS1388054;5;18
009696;17.12.2019;08:37:54;Fastcharge    ;04.12.2018;FEY;;LION;49;14500;7200;192;44;85;90;8400;3000;4046;4047;1;13023;26.74;28.04;31,6;BCS1388054;5;18
009696;17.12.2019;10:33:46;Stop          ;04.12.2018;FEY;;LION;49;14500;7200;224;44;95;100;8400;;4159;4159;1;13023;28.14;29.44;31,1;BCS1388054;5;18
009696;17.12.2019;10:33:46;Stop          ;04.12.2018;FEY;;LION;49;14500;7200;224;44;95;100;8400;;4159;4159;1;13023;28.14;29.44;31,1;BCS1388054;5;18
009696;17.12.2019;13:38:36;Charge to 10% ;04.12.2018;FEY;;LION;49;14500;7200;224;44;95;100;8400;;4151;4150;1;13023;26.94;28.14;30,8;BCS1388054;5;18
009696;17.12.2019;20:33:18;Stop          ;04.12.2018;FEY;;LION;49;14500;7200;192;45;10;10;8400;3000;3359;3361;1;13023;33.64;36.44;34,5;BCS1388054;5;18
009696;18.12.2019;08:31:30;Fastcharge    ;04.12.2018;FEY;;LION;49;14500;7200;192;45;10;10;8400;3000;3371;3372;1;13023;26.84;28.14;31,6;BCS1388054;5;18
009696;18.12.2019;14:29:28;Stop          ;04.12.2018;FEY;;LION;49;14500;7200;224;45;95;100;8400;;4161;4161;1;13023;29.54;30.74;31,7;BCS1388054;5;18
009696;19.12.2019;08:24:02;Charge to 60% ;04.12.2018;FEY;;LION;49;14500;7200;224;45;96;100;8400;;4149;4149;1;13023;26.74;28.04;31,5;BCS1388054;5;18
009696;19.12.2019;11:31:09;Stop          ;04.12.2018;FEY;;LION;49;14500;7200;192;45;58;60;8400;3000;3765;3768;1;13023;33.54;35.84;34,4;BCS1388054;5;18
009696;19.12.2019;12:16:49;Cycle         ;04.12.2018;FEY;;LION;49;14500;7200;192;45;58;60;8400;3000;3776;3780;1;13023;29.84;30.64;32,7;BCS1388054;5;18
009696;20.12.2019;17:27:50;Stop          ;04.12.2018;FEY;;LION;49;14500;7200;224;47;94;100;8400;;4153;4153;1;13023;27.04;28.14;31,0;BCS1388054;5;18
009696;06.01.2020;06:34:55;Charge to 60% ;04.12.2018;FEY;;LION;49;14500;7200;224;47;93;99;8400;;4123;4122;1;13024;27.04;28.34;31,9;BCS1388054;5;18
009696;06.01.2020;09:30:26;Stop          ;04.12.2018;FEY;;LION;49;14500;7200;192;47;57;60;8400;3000;3762;3765;1;13024;32.84;36.24;33,9;BCS1388054;5;18
009696;06.01.2020;09:50:42;Fastcharge    ;04.12.2018;FEY;;LION;49;14500;7200;192;47;57;60;8400;3000;3773;3777;1;13025;30.94;31.24;32,7;BCS1388054;5;18
009696;06.01.2020;13:09:56;Stop          ;04.12.2018;FEY;;LION;49;14500;7200;224;47;95;100;8400;;4160;4161;1;13024;29.14;30.24;31,4;BCS1388054;5;18

File: 009701.txt
Serialnumber ; Date ; Time ; Action ; Date of Manufacture ; Manufacturer ; Battery Name ; Device-Chemistry ; Specification-Info ; Design-Capacity [mAh] ; Design-Voltage [mV] ; Battery Status ; Cycle Count ; SOC [%] ; Relativ SOC[%] ; Desired Voltage [mV]; Desired Current [mA]; Cell Voltage 1 [mV] ; Cell Voltage 2 [mV] ; Max_Error [%] ; Busvoltage[mV] ; Battery Temperature [°C] ; Charger Temperature [°C] ; Batterysystem ; Case ; PLace
009701;07.12.2020;04:14:32;Cycle         ;04.12.2018;FEY;;LION;49;14500;7200;192;2;98;98;8400;;4137;4137;1;13011;25.74;28.74;30,3;BCS1388054;5;15
009701;08.12.2020;16:20:01;Stop          ;04.12.2018;FEY;;LION;49;14500;7200;192;2;98;98;8400;;4135;4135;1;13009;27.84;30.44;31,7;BCS1388054;5;15
009701;12.01.2021;04:17:40;Charge to 90% ;04.12.2018;FEY;;LION;49;14500;7200;192;2;97;97;8400;;4123;4122;1;13012;23.14;23.94;23,6;BCS1388054;6;11
009701;12.01.2021;05:00:55;Stop          ;04.12.2018;FEY;;LION;49;14500;7200;192;2;90;90;8400;3000;4059;4059;1;13008;27.14;28.64;31,2;BCS1388054;6;11
009701;12.01.2021;05:21:57;Cycle         ;04.12.2018;FEY;;LION;49;14500;7200;192;2;90;90;8400;3000;4062;4062;1;13007;27.14;27.64;30,4;BCS1388054;6;11
009701;13.01.2021;08:31:18;Stop          ;04.12.2018;FEY;;LION;49;14500;7200;224;3;97;100;8400;;4156;4157;1;13008;26.94;27.74;31,1;BCS1388054;6;11
009701;21.02.2021;13:45:28;Normalcharge  ;04.12.2018;FEY;;LION;49;14500;7200;224;3;96;99;8400;;4132;4133;1;13005;23.34;22.74;27,8;BCS1388054;6;1
009701;06.04.2021;08:39:21;Normalcharge  ;04.12.2018;FEY;;LION;49;14500;7200;192;3;96;98;8400;;4117;4117;1;13031;21.64;25.24;28,1;BCS1388054;7;1
009701;06.04.2021;08:40:08;Stop          ;04.12.2018;FEY;;LION;49;14500;7200;192;3;96;98;8400;;4117;4117;1;12957;21.64;25.74;28,5;BCS1388054;7;1
009701;08.04.2021;07:59:03;Normalcharge  ;04.12.2018;FEY;;LION;49;14500;7200;192;3;95;98;8400;;4116;4117;1;13036;25.24;25.14;26,4;BCS1388054;7;1
009701;08.04.2021;07:59:16;Stop          ;04.12.2018;FEY;;LION;49;14500;7200;192;3;95;98;8400;;4116;4116;1;13031;25.24;25.24;26,6;BCS1388054;7;1
009701;08.04.2021;10:36:43;Normalcharge  ;04.12.2018;FEY;;LION;49;14500;7200;192;3;95;98;8400;;4116;4117;1;13030;25.54;26.74;28,9;BCS1388054;7;1
009701;08.04.2021;10:37:15;Stop          ;04.12.2018;FEY;;LION;49;14500;7200;192;3;95;98;8400;;4117;4117;1;12965;25.54;27.04;29,2;BCS1388054;7;1
009701;18.04.2021;08:34:46;Normalcharge  ;04.12.2018;FEY;;LION;49;14500;7200;192;3;95;97;8400;;4114;4114;1;13030;26.14;27.34;28,2;BCS1388054;7;1
009701;18.04.2021;08:34:54;Stop          ;04.12.2018;FEY;;LION;49;14500;7200;192;3;95;97;8400;;4114;4114;1;13027;26.14;27.44;28,4;BCS1388054;7;1
009701;04.08.2021;07:24:29;Normalcharge  ;04.12.2018;FEY;;LION;49;14500;7200;192;3;94;96;8400;;4086;4087;1;13027;30.14;30.44;31,5;BCS1388054;7;1
009701;04.08.2021;07:25:08;Stop          ;04.12.2018;FEY;;LION;49;14500;7200;192;3;94;96;8400;;4086;4087;1;12980;30.14;31.04;31,6;BCS1388054;7;1
009701;14.10.2021;12:39:51;Normalcharge  ;04.12.2018;FEY;;LION;49;14500;7200;192;3;73;76;8400;3000;3889;3890;1;12993;25.44;27.24;27,9;BCS1388054;1;8
009701;14.10.2021;12:41:14;Stop          ;04.12.2018;FEY;;LION;49;14500;7200;128;3;73;76;8400;3000;3977;3932;1;12481;25.44;30.44;28,2;BCS1388054;1;8
009701;07.02.2022;08:51:51;Normalcharge  ;04.12.2018;FEY;;LION;49;14500;7200;192;3;73;76;8400;3000;3867;3868;1;13009;22.54;23.04;25,6;BCS1388054;1;7
009701;07.02.2022;13:16:30;Stop          ;04.12.2018;FEY;;LION;49;14500;7200;224;3;96;100;8400;;4152;4155;1;13005;25.74;27.04;31,2;BCS1388054;1;7
009701;14.03.2022;12:14:26;Normalcharge  ;04.12.2018;FEY;;LION;49;14500;7200;224;3;95;99;8400;;4130;4132;1;13015;24.14;25.74;27,5;BCS1388054;5;5
009701;14.03.2022;12:18:30;Stop          ;04.12.2018;FEY;;LION;49;14500;7200;224;3;95;99;8400;;4130;4132;1;13012;24.24;26.74;29,5;BCS1388054;5;5

File: 009707.txt
Serialnumber ; Date ; Time ; Action ; Date of Manufacture ; Manufacturer ; Battery Name ; Device-Chemistry ; Specification-Info ; Design-Capacity [mAh] ; Design-Voltage [mV] ; Battery Status ; Cycle Count ; SOC [%] ; Relativ SOC[%] ; Desired Voltage [mV]; Desired Current [mA]; Cell Voltage 1 [mV] ; Cell Voltage 2 [mV] ; Max_Error [%] ; Busvoltage[mV] ; Battery Temperature [°C] ; Charger Temperature [°C] ; Batterysystem ; Case ; PLace
009707;07.12.2020;04:14:40;Cycle         ;04.12.2018;FEY;;LION;49;14500;7200;192;1;93;93;8400;3000;4082;4083;1;13024;25.44;26.74;30,3;BCS1388054;7;16
009707;08.12.2020;16:20:20;Stop          ;04.12.2018;FEY;;LION;49;14500;7200;224;2;98;100;8400;;4153;4153;1;13024;27.44;28.04;31,9;BCS1388054;7;16
009707;21.02.2021;13:43:19;Normalcharge  ;04.12.2018;FEY;;LION;49;14500;7200;192;2;80;83;8400;3000;3970;3970;1;12996;23.44;26.44;27,5;BCS1388054;1;8
009707;22.02.2021;17:08:49;Stop          ;04.12.2018;FEY;;LION;49;14500;7200;224;2;97;100;8400;;4149;4149;1;12996;26.14;28.34;30,0;BCS1388054;1;8
009707;06.04.2021;08:39:10;Normalcharge  ;04.12.2018;FEY;;LION;49;14500;7200;224;2;95;99;8400;;4129;4129;1;13002;21.74;24.64;28,1;BCS1388054;5;10
009707;06.04.2021;08:39:58;Stop          ;04.12.2018;FEY;;LION;49;14500;7200;224;2;95;99;8400;;4129;4129;1;13002;21.84;24.84;28,4;BCS1388054;5;10
009707;08.04.2021;07:58:30;Normalcharge  ;04.12.2018;FEY;;LION;49;14500;7200;224;2;95;99;8400;;4129;4129;1;13007;25.04;24.84;26,4;BCS1388054;5;10
009707;08.04.2021;07:59:28;Stop          ;04.12.2018;FEY;;LION;49;14500;7200;224;2;95;99;8400;;4128;4129;1;13007;25.04;25.24;26,7;BCS1388054;5;10
009707;08.04.2021;10:36:12;Normalcharge  ;04.12.2018;FEY;;LION;49;14500;7200;224;2;95;99;8400;;4128;4129;1;13002;25.24;25.54;28,6;BCS1388054;5;10
009707;08.04.2021;10:37:06;Stop          ;04.12.2018;FEY;;LION;49;14500;7200;224;2;95;99;8400;;4128;4129;1;13001;25.24;25.84;29,0;BCS1388054;5;10
009707;18.04.2021;08:34:16;Normalcharge  ;04.12.2018;FEY;;LION;49;14500;7200;224;2;95;99;8400;;4125;4125;1;13002;25.94;26.24;28,1;BCS1388054;5;10
009707;18.04.2021;08:34:27;Stop          ;04.12.2018;FEY;;LION;49;14500;7200;224;2;95;99;8400;;4124;4125;1;13000;25.94;26.44;28,2;BCS1388054;5;10
009707;04.08.2021;07:24:41;Normalcharge  ;04.12.2018;FEY;;LION;49;14500;7200;192;2;92;96;8400;;4092;4093;1;12998;30.04;30.24;31,5;BCS1388054;5;10
009707;04.08.2021;07:25:23;Stop          ;04.12.2018;FEY;;LION;49;14500;7200;192;2;92;96;8400;;4092;4093;1;12996;30.04;30.44;31,6;BCS1388054;5;10
009707;22.08.2021;11:37:17;Normalcharge  ;04.12.2018;FEY;;LION;49;14500;7200;192;2;92;96;8400;;4087;4087;1;12986;22.54;29.74;31,9;BCS1388054;6;13
009707;22.08.2021;11:37:57;Stop          ;04.12.2018;FEY;;LION;49;14500;7200;192;2;92;96;8400;;4087;4088;1;12846;22.64;29.94;32,0;BCS1388054;6;13
009707;14.10.2021;12:39:52;Normalcharge  ;04.12.2018;FEY;;LION;49;14500;7200;192;2;69;71;8400;3000;3858;3858;1;12997;24.24;25.64;27,9;BCS1388054;1;10
009707;14.10.2021;12:41:14;Stop          ;04.12.2018;FEY;;LION;49;14500;7200;128;2;70;72;8400;3000;3950;3901;1;12467;24.34;29.04;28,2;BCS1388054;1;10
009707;07.02.2022;08:51:46;Normalcharge  ;04.12.2018;FEY;;LION;49;14500;7200;192;2;70;72;8400;3000;3833;3833;1;13019;22.14;22.64;25,6;BCS1388054;2;6
009707;07.02.2022;13:15:56;Stop          ;04.12.2018;FEY;;LION;49;14500;7200;224;2;98;100;8400;;4153;4153;1;13014;25.44;26.34;31,1;BCS1388054;2;6
009707;14.03.2022;12:14:39;Normalcharge  ;04.12.2018;FEY;;LION;49;14500;7200;224;2;96;99;8400;;4130;4130;1;12987;24.34;26.04;27,7;BCS1388054;2;7
009707;14.03.2022;12:15:13;Stop          ;04.12.2018;FEY;;LION;49;14500;7200;224;2;96;99;8400;;4129;4129;1;12986;24.34;26.14;27,9;BCS1388054;2;7
009707;14.03.2022;12:17:51;Normalcharge  ;04.12.2018;FEY;;LION;49;14500;7200;224;2;96;99;8400;;4130;4130;1;12984;24.34;26.64;29,2;BCS1388054;2;7
009707;14.03.2022;12:18:32;Stop          ;04.12.2018;FEY;;LION;49;14500;7200;224;2;96;99;8400;;4130;4130;1;12984;24.34;26.74;29,5;BCS1388054;2;7
009707;14.03.2022;12:19:02;Normalcharge  ;04.12.2018;FEY;;LION;49;14500;7200;224;2;96;99;8400;;4130;4130;1;12984;24.34;26.74;29,5;BCS1388054;2;7
009707;14.03.2022;12:19:06;Stop          ;04.12.2018;FEY;;LION;49;14500;7200;224;2;96;99;8400;;4130;4129;1;12984;24.34;26.74;29,6;BCS1388054;2;7

File: 009708.txt
Serialnumber ; Date ; Time ; Action ; Date of Manufacture ; Manufacturer ; Battery Name ; Device-Chemistry ; Specification-Info ; Design-Capacity [mAh] ; Design-Voltage [mV] ; Battery Status ; Cycle Count ; SOC [%] ; Relativ SOC[%] ; Desired Voltage [mV]; Desired Current [mA]; Cell Voltage 1 [mV] ; Cell Voltage 2 [mV] ; Max_Error [%] ; Busvoltage[mV] ; Battery Temperature [°C] ; Charger Temperature [°C] ; Batterysystem ; Case ; PLace
009708;07.12.2020;04:14:25;Cycle          ;04.12.2018;FEY;;LION;49;14500;7200;192;3;97;98;8400;;4144;4143;1;13012;25.64;27.54;30,3;BCS1388054;3;15
009708;08.12.2020;16:19:50;Stop           ;04.12.2018;FEY;;LION;49;14500;7200;192;3;97;98;8400;;4142;4141;1;13011;27.84;29.34;31,9;BCS1388054;3;15
009708;12.01.2021;04:17:47;Charge to 90% ;04.12.2018;FEY;;LION;49;14500;7200;192;3;96;97;8400;;4126;4126;1;13039;23.04;22.94;23,8;BCS1388054;7;14
009708;12.01.2021;04:57:20;Stop          ;04.12.2018;FEY;;LION;49;14500;7200;192;3;90;90;8400;3000;4060;4059;1;13035;26.44;29.24;31,5;BCS1388054;7;14
009708;12.01.2021;05:22:01;Cycle         ;04.12.2018;FEY;;LION;49;14500;7200;192;3;90;90;8400;3000;4065;4064;1;13035;26.64;27.44;30,4;BCS1388054;7;14
009708;13.01.2021;08:19:29;Stop          ;04.12.2018;FEY;;LION;49;14500;7200;224;4;97;100;8400;;4155;4155;1;13034;26.74;27.34;30,7;BCS1388054;7;14
009708;21.02.2021;13:44:56;Normalcharge  ;04.12.2018;FEY;;LION;49;14500;7200;192;5;52;54;8400;3000;3682;3681;1;13014;22.84;23.14;27,7;BCS1388054;5;11
009708;21.02.2021;19:31:36;Stop          ;04.12.2018;FEY;;LION;49;14500;7200;224;5;97;100;8400;;4154;4153;1;13008;27.04;27.24;30,6;BCS1388054;5;11
009708;06.04.2021;08:39:21;Normalcharge  ;04.12.2018;FEY;;LION;49;14500;7200;192;5;95;98;8400;;4114;4113;1;13032;21.54;24.34;28,1;BCS1388054;7;16
009708;06.04.2021;08:40:08;Stop          ;04.12.2018;FEY;;LION;49;14500;7200;192;5;95;98;8400;;4114;4113;1;12942;21.54;24.64;28,5;BCS1388054;7;16
009708;08.04.2021;07:59:03;Normalcharge  ;04.12.2018;FEY;;LION;49;14500;7200;192;5;95;98;8400;;4114;4113;1;13034;25.14;24.64;26,4;BCS1388054;7;16
009708;08.04.2021;07:59:16;Stop          ;04.12.2018;FEY;;LION;49;14500;7200;192;5;95;98;8400;;4114;4113;1;13031;25.14;24.84;26,6;BCS1388054;7;16
009708;08.04.2021;10:36:43;Normalcharge  ;04.12.2018;FEY;;LION;49;14500;7200;192;5;95;98;8400;;4114;4113;1;13031;25.34;25.74;28,9;BCS1388054;7;16
009708;08.04.2021;10:37:15;Stop          ;04.12.2018;FEY;;LION;49;14500;7200;192;5;95;98;8400;;4114;4113;1;12958;25.34;25.84;29,2;BCS1388054;7;16
009708;18.04.2021;08:34:46;Normalcharge  ;04.12.2018;FEY;;LION;49;14500;7200;192;5;95;98;8400;;4111;4109;1;13031;26.04;26.44;28,2;BCS1388054;7;16
009708;18.04.2021;08:34:54;Stop          ;04.12.2018;FEY;;LION;49;14500;7200;192;5;95;98;8400;;4111;4109;1;13028;26.04;26.44;28,4;BCS1388054;7;16
009708;04.08.2021;07:24:29;Normalcharge  ;04.12.2018;FEY;;LION;49;14500;7200;192;5;94;97;8400;;4081;4081;1;13026;30.04;29.84;31,5;BCS1388054;7;16
009708;04.08.2021;07:25:08;Stop          ;04.12.2018;FEY;;LION;49;14500;7200;192;5;94;97;8400;;4081;4081;1;12975;30.04;30.24;31,6;BCS1388054;7;16
009708;14.10.2021;12:39:58;Normalcharge  ;04.12.2018;FEY;;LION;49;14500;7200;192;5;68;70;8400;3000;3851;3850;1;12999;24.94;26.04;27,9;BCS1388054;2;11
009708;14.10.2021;12:41:25;Stop          ;04.12.2018;FEY;;LION;49;14500;7200;128;5;68;71;8400;3000;3944;3895;1;12558;25.04;28.94;28,2;BCS1388054;2;11
009708;07.02.2022;08:51:46;Normalcharge  ;04.12.2018;FEY;;LION;49;14500;7200;192;5;68;71;8400;3000;3825;3823;1;12990;22.24;23.64;25,6;BCS1388054;2;7
009708;07.02.2022;13:15:56;Stop          ;04.12.2018;FEY;;LION;49;14500;7200;224;5;97;100;8400;;4152;4153;1;12987;26.14;27.94;31,1;BCS1388054;2;7
009708;14.03.2022;12:14:44;Normalcharge  ;04.12.2018;FEY;;LION;49;14500;7200;224;5;96;99;8400;;4128;4129;1;13004;24.44;26.44;27,7;BCS1388054;1;3
009708;14.03.2022;12:15:19;Stop          ;04.12.2018;FEY;;LION;49;14500;7200;224;5;96;99;8400;;4128;4129;1;13003;24.44;26.64;27,9;BCS1388054;1;3
009708;14.03.2022;12:15:29;Normalcharge  ;04.12.2018;FEY;;LION;49;14500;7200;224;5;96;99;8400;;4128;4129;1;13003;24.54;26.74;28,1;BCS1388054;1;3
009708;14.03.2022;12:16:01;Stop          ;04.12.2018;FEY;;LION;49;14500;7200;224;5;96;99;8400;;4128;4129;1;13004;24.54;26.94;28,4;BCS1388054;1;3
009708;14.03.2022;12:17:43;Normalcharge  ;04.12.2018;FEY;;LION;49;14500;7200;224;5;96;99;8400;;4129;4129;1;13003;24.54;27.24;29,2;BCS1388054;1;3
009708;14.03.2022;12:18:20;Stop          ;04.12.2018;FEY;;LION;49;14500;7200;224;5;96;99;8400;;4129;4129;1;13002;24.54;27.34;29,3;BCS1388054;1;3
009708;14.03.2022;12:19:16;Normalcharge  ;04.12.2018;FEY;;LION;49;14500;7200;224;5;96;99;8400;;4129;4129;1;13002;24.54;27.44;29,5;BCS1388054;1;3
009708;14.03.2022;12:19:20;Stop          ;04.12.2018;FEY;;LION;49;14500;7200;224;5;96;99;8400;;4129;4129;1;13002;24.54;27.44;29,6;BCS1388054;1;3
009708;29.03.2022;08:20:53;Normalcharge  ;04.12.2018;FEY;;LION;49;14500;7200;192;5;85;87;8400;3000;4006;4006;1;13003;24.74;24.74;25,7;BCS1388054;5;14
009708;29.03.2022;08:21:28;Stop          ;04.12.2018;FEY;;LION;49;14500;7200;128;5;85;87;8400;3000;4019;4014;1;12860;24.74;26.04;25,8;BCS1388054;5;14
009708;29.03.2022;08:22:15;Normalcharge  ;04.12.2018;FEY;;LION;49;14500;7200;128;5;85;87;8400;3000;4006;4007;1;13002;24.84;25.74;26,3;BCS1388054;5;14
009708;29.03.2022;08:22:21;Stop          ;04.12.2018;FEY;;LION;49;14500;7200;128;5;85;87;8400;3000;4007;4009;1;12991;24.84;25.84;26,3;BCS1388054;5;14
009708;17.05.2022;08:54:06;Normalcharge  ;04.12.2018;FEY;;LION;49;14500;7200;192;5;84;87;8400;3000;3989;3989;1;12990;28.24;30.54;30,8;BCS1388054;1;14
009708;17.05.2022;11:50:11;Stop          ;04.12.2018;FEY;;LION;49;14500;7200;224;5;97;100;8400;;4153;4152;1;12988;30.94;32.94;34,5;BCS1388054;1;14

File: 009711.txt
Serialnumber ; Date ; Time ; Action ; Date of Manufacture ; Manufacturer ; Battery Name ; Device-Chemistry ; Specification-Info ; Design-Capacity [mAh] ; Design-Voltage [mV] ; Battery Status ; Cycle Count ; SOC [%] ; Relativ SOC[%] ; Desired Voltage [mV]; Desired Current [mA]; Cell Voltage 1 [mV] ; Cell Voltage 2 [mV] ; Max_Error [%] ; Busvoltage[mV] ; Battery Temperature [°C] ; Charger Temperature [°C] ; Batterysystem ; Case ; PLace
009711;07.12.2020;04:14:21;Cycle         ;04.12.2018;FEY;;LION;49;14500;7200;16576;2;98;99;;;4161;4161;1;12994;25.74;27.64;30,3;BCS1388054;2;14
009711;08.12.2020;16:19:44;Stop          ;04.12.2018;FEY;;LION;49;14500;7200;16576;2;98;99;;;4158;4158;1;12993;27.94;29.34;31,9;BCS1388054;2;14
009711;12.01.2021;04:17:40;Charge to 90% ;04.12.2018;FEY;;LION;49;14500;7200;16576;2;97;98;;;4142;4141;1;13000;23.24;23.94;23,6;BCS1388054;6;10
009711;12.01.2021;05:00:55;Stop          ;04.12.2018;FEY;;LION;49;14500;7200;192;2;90;90;8400;3000;4061;4061;1;12994;27.24;29.14;31,2;BCS1388054;6;10
009711;12.01.2021;05:21:57;Cycle         ;04.12.2018;FEY;;LION;49;14500;7200;192;2;90;90;8400;3000;4066;4066;1;12995;27.14;28.14;30,4;BCS1388054;6;10
009711;13.01.2021;08:31:18;Stop          ;04.12.2018;FEY;;LION;49;14500;7200;224;3;97;100;8400;;4155;4155;1;12996;27.14;28.14;31,1;BCS1388054;6;10
009711;21.02.2021;13:45:29;Normalcharge  ;04.12.2018;FEY;;LION;49;14500;7200;192;4;51;52;8400;3000;3680;3678;1;13017;22.84;23.84;27,8;BCS1388054;6;17
009711;06.04.2021;08:38:40;Normalcharge  ;04.12.2018;FEY;;LION;49;14500;7200;224;4;96;99;8400;;4128;4130;1;13000;21.34;26.14;28,1;BCS1388054;1;8
009711;06.04.2021;08:39:29;Stop          ;04.12.2018;FEY;;LION;49;14500;7200;224;4;96;99;8400;;4129;4130;1;12999;21.34;26.64;28,2;BCS1388054;1;8
009711;08.04.2021;07:57:52;Normalcharge  ;04.12.2018;FEY;;LION;49;14500;7200;224;4;96;99;8400;;4128;4129;1;13000;25.34;26.14;26,3;BCS1388054;1;8
009711;08.04.2021;07:59:50;Stop          ;04.12.2018;FEY;;LION;49;14500;7200;224;4;96;99;8400;;4128;4129;1;12944;25.34;27.14;26,8;BCS1388054;1;8
009711;08.04.2021;10:34:35;Normalcharge  ;04.12.2018;FEY;;LION;49;14500;7200;224;4;96;99;8400;;4128;4129;1;13000;26.54;28.64;28,1;BCS1388054;1;8
009711;08.04.2021;10:36:49;Stop          ;04.12.2018;FEY;;LION;49;14500;7200;224;4;96;99;8400;;4129;4130;1;12882;26.54;28.74;28,9;BCS1388054;1;8
009711;18.04.2021;08:33:24;Normalcharge  ;04.12.2018;FEY;;LION;49;14500;7200;192;4;96;98;8400;;4124;4125;1;12998;26.34;27.54;27,7;BCS1388054;1;8
009711;18.04.2021;08:33:29;Stop          ;04.12.2018;FEY;;LION;49;14500;7200;192;4;96;98;8400;;4124;4125;1;12994;26.34;27.54;27,7;BCS1388054;1;8
009711;04.08.2021;07:25:01;Normalcharge  ;04.12.2018;FEY;;LION;49;14500;7200;192;4;93;96;8400;;4093;4094;1;12992;30.74;32.04;31,5;BCS1388054;1;8
009711;04.08.2021;07:25:57;Stop          ;04.12.2018;FEY;;LION;49;14500;7200;192;4;93;96;8400;;4094;4094;1;12785;30.74;32.34;31,9;BCS1388054;1;8
009711;22.08.2021;11:08:09;Normalcharge  ;04.12.2018;FEY;;LION;49;14500;7200;192;4;85;88;8400;3000;4015;4015;1;13010;23.34;29.84;32,1;BCS1388054;5;15
009711;22.08.2021;11:08:42;Stop          ;04.12.2018;FEY;;LION;49;14500;7200;128;4;85;88;8400;3000;4034;4026;1;12857;23.44;30.94;32,5;BCS1388054;5;15
009711;01.11.2021;09:52:05;Normalcharge  ;04.12.2018;FEY;;LION;49;14500;7200;192;4;84;86;8400;3000;3993;3993;1;12995;25.44;25.44;26,3;BCS1388054;4;3
009711;01.11.2021;09:53:34;Stop          ;04.12.2018;FEY;;LION;49;14500;7200;128;4;84;87;8400;3000;4087;4043;1;12612;25.54;29.44;27,1;BCS1388054;4;3
009711;01.11.2021;10:02:14;Normalcharge  ;04.12.2018;FEY;;LION;49;14500;7200;192;4;84;87;8400;3000;3996;3996;1;12991;25.64;28.54;29,5;BCS1388054;4;3
009711;01.11.2021;10:03:16;Stop          ;04.12.2018;FEY;;LION;49;14500;7200;128;4;84;87;8400;3000;4091;4044;1;12590;25.64;30.74;29,3;BCS1388054;4;3
009711;28.12.2021;09:01:25;Normalcharge  ;04.12.2018;FEY;;LION;49;14500;7200;192;4;82;85;8400;3000;3978;3978;1;13005;23.94;23.34;25,3;BCS1388054;3;16
009711;28.12.2021;09:02:25;Stop           ;04.12.2018;FEY;;LION;49;14500;7200;128;4;82;85;8400;3000;4074;4029;1;12544;24.04;25.54;25,8;BCS1388054;3;16
009711;09.02.2022;08:17:09;Normalcharge  ;04.12.2018;FEY;;LION;49;14500;7200;192;4;81;84;8400;3000;3963;3963;1;13010;21.44;22.44;23,3;BCS1388054;5;11
009711;09.02.2022;13:56:40;Stop          ;04.12.2018;FEY;;LION;49;14500;7200;224;4;98;100;8400;;4144;4146;1;13003;24.54;24.64;29,9;BCS1388054;5;11