Folder: Battery_sort_V2/reader/Batterieverzeichnis_new (part 15)

File: 009788.txt
Serialnumber ; Date ; Time ; Action ; Date of Manufacture ; Manufacturer ; Battery Name ; Device-Chemistry ; Specification-Info ; Design-Capacity [mAh] ; Design-Voltage [mV] ; Battery Status ; Cycle Count ; SOC [%] ; Relativ SOC[%] ; Desired Voltage [mV]; Desired Current [mA]; Cell Voltage 1 [mV] ; Cell Voltage 2 [mV] ; Max_Error [%] ; Busvoltage[mV] ; Battery Temperature [°C] ; Charger Temperature [°C] ; Batterysystem ; Case ; PLace
009788;07.12.2020;04:14:28;Cycle         ;04.12.2018;FEY;;LION;49;14500;7200;192;3;99;98;8400;;4144;4144;1;13014;26.04;26.24;30,3;BCS1388054;4;18
009788;08.12.2020;16:19:56;Stop          ;04.12.2018;FEY;;LION;49;14500;7200;192;3;99;98;8400;;4142;4142;1;13014;27.84;27.84;31,9;BCS1388054;4;18
009788;07.02.2021;08:46:54;Normalcharge  ;04.12.2018;FEY;;LION;49;14500;7200;192;3;96;95;8400;3000;4098;4098;1;13015;23.74;25.24;29,2;BCS1388054;3;14
009788;07.02.2021;11:52:16;Stop           ;04.12.2018;FEY;;LION;49;14500;7200;224;3;102;100;8400;;4150;4150;1;13017;26.14;27.04;29,7;BCS1388054;3;14
009788;03.03.2021;08:17:35;Normalcharge  ;04.12.2018;FEY;;LION;49;14500;7200;192;3;74;75;8400;3000;3891;3892;1;12999;23.44;23.04;23,6;BCS1388054;5;13
009788;03.03.2021;11:26:36;Stop          ;04.12.2018;FEY;;LION;49;14500;7200;224;3;99;100;8400;;4159;4158;1;12994;29.24;29.74;31,5;BCS1388054;5;13
009788;06.04.2021;08:38:50;Normalcharge  ;04.12.2018;FEY;;LION;49;14500;7200;224;3;98;99;8400;;4133;4132;1;13014;21.04;24.34;28,1;BCS1388054;3;17
009788;06.04.2021;08:39:42;Stop           ;04.12.2018;FEY;;LION;49;14500;7200;224;3;98;99;8400;;4133;4132;1;13012;21.04;24.64;28,2;BCS1388054;3;17
009788;08.04.2021;07:58:01;Normalcharge  ;04.12.2018;FEY;;LION;49;14500;7200;224;3;97;99;8400;;4133;4132;1;13015;25.54;24.54;26,4;BCS1388054;3;17
009788;08.04.2021;07:59:40;Stop           ;04.12.2018;FEY;;LION;49;14500;7200;224;3;97;99;8400;;4132;4132;1;13012;25.54;25.24;26,8;BCS1388054;3;17
009788;08.04.2021;10:35:05;Normalcharge  ;04.12.2018;FEY;;LION;49;14500;7200;224;3;97;99;8400;;4132;4132;1;13012;25.74;24.84;28,1;BCS1388054;3;17
009788;08.04.2021;10:36:56;Stop           ;04.12.2018;FEY;;LION;49;14500;7200;224;3;97;99;8400;;4132;4132;1;13012;25.74;25.64;29,0;BCS1388054;3;17
009788;18.04.2021;08:33:50;Normalcharge  ;04.12.2018;FEY;;LION;49;14500;7200;224;3;97;99;8400;;4128;4128;1;13011;26.44;26.04;27,8;BCS1388054;3;17
009788;18.04.2021;08:33:58;Stop           ;04.12.2018;FEY;;LION;49;14500;7200;224;3;97;99;8400;;4128;4128;1;13012;26.44;26.14;27,9;BCS1388054;3;17
009788;04.08.2021;07:24:50;Normalcharge  ;04.12.2018;FEY;;LION;49;14500;7200;192;3;94;96;8400;;4095;4095;1;13008;30.64;30.14;31,6;BCS1388054;3;17
009788;04.08.2021;07:25:37;Stop           ;04.12.2018;FEY;;LION;49;14500;7200;192;3;94;96;8400;;4095;4095;1;13005;30.64;30.54;31,7;BCS1388054;3;17
009788;22.08.2021;11:07:59;Normalcharge  ;04.12.2018;FEY;;LION;49;14500;7200;192;3;68;69;8400;3000;3839;3839;1;13001;22.94;29.24;32,1;BCS1388054;3;4
009788;22.08.2021;11:08:33;Stop           ;04.12.2018;FEY;;LION;49;14500;7200;128;3;68;69;8400;3000;3904;3868;1;12707;23.04;30.44;32,4;BCS1388054;3;4
009788;12.10.2021;12:15:20;Normalcharge  ;04.12.2018;FEY;;LION;49;14500;7200;192;3;68;68;8400;3000;3817;3818;1;13008;23.74;25.34;27,9;BCS1388054;1;13
009788;12.10.2021;12:15:34;Stop          ;04.12.2018;FEY;;LION;49;14500;7200;192;3;68;68;8400;3000;3817;3818;1;12992;23.74;25.74;27,9;BCS1388054;1;13
009788;14.10.2021;12:40:22;Normalcharge  ;04.12.2018;FEY;;LION;49;14500;7200;192;3;68;68;8400;3000;3817;3818;1;13028;23.74;27.14;28,1;BCS1388054;7;8
009788;14.10.2021;12:42:05;Stop          ;04.12.2018;FEY;;LION;49;14500;7200;128;3;68;68;8400;3000;3914;3867;1;12733;23.84;30.64;28,5;BCS1388054;7;8
009788;07.02.2022;08:50:57;Normalcharge  ;04.12.2018;FEY;;LION;49;14500;7200;192;3;64;64;8400;3000;3776;3776;1;12998;22.44;23.04;25,1;BCS1388054;4;3
009788;07.02.2022;13:19:09;Stop          ;04.12.2018;FEY;;LION;49;14500;7200;224;3;100;100;8400;;4156;4154;1;12994;27.34;28.44;29,7;BCS1388054;4;3

File: 009792.txt
Serialnumber ; Date ; Time ; Action ; Date of Manufacture ; Manufacturer ; Battery Name ; Device-Chemistry ; Specification-Info ; Design-Capacity [mAh] ; Design-Voltage [mV] ; Battery Status ; Cycle Count ; SOC [%] ; Relativ SOC[%] ; Desired Voltage [mV]; Desired Current [mA]; Cell Voltage 1 [mV] ; Cell Voltage 2 [mV] ; Max_Error [%] ; Busvoltage[mV] ; Battery Temperature [°C] ; Charger Temperature [°C] ; Batterysystem ; Case ; PLace
009792;07.12.2020;04:14:28;Cycle         ;04.12.2018;FEY;;LION;49;14500;7200;16576;3;99;98;;;4146;4147;1;13010;25.94;27.84;30,3;BCS1388054;4;10
009792;08.12.2020;16:19:56;Stop          ;04.12.2018;FEY;;LION;49;14500;7200;16576;3;99;98;;;4144;4144;1;13010;28.04;29.24;31,9;BCS1388054;4;10
009792;07.02.2021;08:46:49;Normalcharge  ;04.12.2018;FEY;;LION;49;14500;7200;16576;3;97;96;;;4120;4120;1;12998;24.04;25.84;29,2;BCS1388054;2;12
009792;07.02.2021;11:52:12;Stop          ;04.12.2018;FEY;;LION;49;14500;7200;16576;3;97;96;;;4120;4120;1;12999;26.04;26.94;29,7;BCS1388054;2;12
009792;03.03.2021;08:17:17;Normalcharge  ;04.12.2018;FEY;;LION;49;14500;7200;16576;3;95;95;;;4101;4101;1;12994;23.44;23.74;23,5;BCS1388054;2;7
009792;04.03.2021;07:53:46;Stop          ;04.12.2018;FEY;;LION;49;14500;7200;16576;3;95;95;;;4100;4101;1;12987;26.74;28.54;31,6;BCS1388054;2;7
009792;04.04.2021;11:49:55;Normalcharge  ;04.12.2018;FEY;;LION;49;14500;7200;16576;3;94;93;;;4087;4087;1;13026;25.14;25.44;27,5;BCS1388054;7;3
009792;04.04.2021;11:51:17;Stop          ;04.12.2018;FEY;;LION;49;14500;7200;16576;3;94;93;;;4087;4087;1;12752;25.14;26.34;28,4;BCS1388054;7;3
009792;22.08.2021;11:07:51;Normalcharge  ;04.12.2018;FEY;;LION;49;14500;7200;192;3;76;76;8400;3000;3901;3902;1;12990;23.04;30.04;32,0;BCS1388054;1;18
009792;22.08.2021;11:08:24;Stop          ;04.12.2018;FEY;;LION;49;14500;7200;128;3;76;76;8400;3000;3955;3927;1;12562;23.24;31.24;32,4;BCS1388054;1;18
009792;12.10.2021;12:40:28;Normalcharge  ;04.12.2018;FEY;;LION;49;14500;7200;192;3;76;76;8400;3000;3891;3891;1;13021;24.64;27.14;28,8;BCS1388054;7;11
009792;12.10.2021;12:40:39;Stop          ;04.12.2018;FEY;;LION;49;14500;7200;192;3;76;76;8400;3000;3891;3891;1;13014;24.64;27.24;28,9;BCS1388054;7;11
009792;12.10.2021;12:43:08;Normalcharge  ;04.12.2018;FEY;;LION;49;14500;7200;192;3;76;76;8400;3000;3891;3891;1;13021;24.84;27.14;29,2;BCS1388054;7;11
009792;12.10.2021;12:43:28;Stop          ;04.12.2018;FEY;;LION;49;14500;7200;192;3;76;76;8400;3000;3891;3891;1;13014;24.84;27.74;29,2;BCS1388054;7;11
009792;14.10.2021;12:40:18;Normalcharge  ;04.12.2018;FEY;;LION;49;14500;7200;192;3;76;76;8400;3000;3890;3891;1;13000;23.64;26.24;28,1;BCS1388054;6;9
009792;14.10.2021;12:41:59;Stop          ;04.12.2018;FEY;;LION;49;14500;7200;128;3;76;76;8400;3000;3986;3940;1;12633;23.84;29.84;28,5;BCS1388054;6;9
009792;07.02.2022;08:51:46;Normalcharge  ;04.12.2018;FEY;;LION;49;14500;7200;192;3;76;76;8400;3000;3866;3866;1;12999;22.84;22.84;25,6;BCS1388054;2;13
009792;07.02.2022;13:15:56;Stop          ;04.12.2018;FEY;;LION;49;14500;7200;224;3;101;100;8400;;4153;4153;1;12993;26.14;26.94;31,1;BCS1388054;2;13
009792;14.03.2022;12:14:44;Normalcharge  ;04.12.2018;FEY;;LION;49;14500;7200;224;3;99;99;8400;;4130;4129;1;12996;24.64;26.44;27,7;BCS1388054;1;8
009792;14.03.2022;12:15:19;Stop          ;04.12.2018;FEY;;LION;49;14500;7200;224;3;99;99;8400;;4130;4129;1;12996;24.64;26.64;27,9;BCS1388054;1;8
009792;14.03.2022;12:15:29;Normalcharge  ;04.12.2018;FEY;;LION;49;14500;7200;224;3;99;99;8400;;4130;4129;1;12995;24.74;26.64;28,1;BCS1388054;1;8
009792;14.03.2022;12:16:01;Stop          ;04.12.2018;FEY;;LION;49;14500;7200;224;3;99;99;8400;;4130;4129;1;12995;24.64;26.74;28,4;BCS1388054;1;8
009792;14.03.2022;12:17:43;Normalcharge  ;04.12.2018;FEY;;LION;49;14500;7200;224;3;99;99;8400;;4130;4130;1;12996;24.74;27.04;29,2;BCS1388054;1;8
009792;14.03.2022;12:18:20;Stop          ;04.12.2018;FEY;;LION;49;14500;7200;224;3;99;99;8400;;4130;4130;1;12995;24.74;27.14;29,3;BCS1388054;1;8
009792;14.03.2022;12:19:16;Normalcharge  ;04.12.2018;FEY;;LION;49;14500;7200;224;3;99;99;8400;;4130;4130;1;12994;24.74;27.24;29,5;BCS1388054;1;8
009792;14.03.2022;12:19:20;Stop          ;04.12.2018;FEY;;LION;49;14500;7200;224;3;99;99;8400;;4130;4130;1;12994;24.74;27.24;29,6;BCS1388054;1;8

File: 009793.txt
Serialnumber ; Date ; Time ; Action ; Date of Manufacture ; Manufacturer ; Battery Name ; Device-Chemistry ; Specification-Info ; Design-Capacity [mAh] ; Design-Voltage [mV] ; Battery Status ; Cycle Count ; SOC [%] ; Relativ SOC[%] ; Desired Voltage [mV]; Desired Current [mA]; Cell Voltage 1 [mV] ; Cell Voltage 2 [mV] ; Max_Error [%] ; Busvoltage[mV] ; Battery Temperature [°C] ; Charger Temperature [°C] ; Batterysystem ; Case ; PLace
009793;02.12.2020;11:43:08;Cycle         ;04.12.2018;FEY;;LION;49;14500;7200;192;3;80;81;8400;3000;3931;3933;1;12992;26.04;27.84;28,4;BCS1388054;1;1
009793;03.12.2020;15:31:47;Stop          ;04.12.2018;FEY;;LION;49;14500;7200;224;4;96;99;8400;;4155;4156;1;12993;26.74;28.14;28,8;BCS1388054;1;1
009793;03.12.2020;17:28:02;Normalcharge  ;04.12.2018;FEY;;LION;49;14500;7200;224;4;96;99;8400;;4153;4155;1;12992;26.64;28.24;28,9;BCS1388054;1;1
009793;03.03.2021;08:17:17;Normalcharge  ;04.12.2018;FEY;;LION;49;14500;7200;192;4;91;95;8400;3000;4086;4086;1;13020;23.14;23.44;23,5;BCS1388054;2;9
009793;04.03.2021;07:53:46;Stop          ;04.12.2018;FEY;;LION;49;14500;7200;224;4;97;100;8400;;4145;4145;1;13010;26.44;27.74;31,6;BCS1388054;2;9
009793;04.04.2021;11:50:39;Normalcharge  ;04.12.2018;FEY;;LION;49;14500;7200;192;5;51;53;8400;3000;3679;3680;1;12995;24.94;27.44;28,1;BCS1388054;1;8
009793;04.04.2021;11:51:54;Stop          ;04.12.2018;FEY;;LION;49;14500;7200;128;5;51;53;8400;3000;3765;3717;1;12562;25.04;30.04;28,8;BCS1388054;1;8
009793;05.04.2021;09:38:17;Charge to 60% ;04.12.2018;FEY;;LION;49;14500;7200;192;5;51;53;8400;3000;3681;3682;1;13007;25.14;25.34;26,4;BCS1388054;5;1
009793;05.04.2021;10:34:50;Charge to 60% ;04.12.2018;FEY;;LION;49;14500;7200;192;5;57;60;8400;3000;3746;3749;1;12923;27.54;28.94;32,4;BCS1388054;5;1
009793;05.04.2021;13:16:09;Stop          ;04.12.2018;FEY;;LION;49;14500;7200;192;5;57;60;8400;3000;3744;3747;1;13003;27.64;28.84;32,2;BCS1388054;5;1
009793;22.08.2021;11:37:38;Normalcharge  ;04.12.2018;FEY;;LION;49;14500;7200;192;5;53;55;8400;3000;3696;3698;1;12982;21.94;30.14;31,9;BCS1388054;2;18
009793;22.08.2021;11:38:27;Stop          ;04.12.2018;FEY;;LION;49;14500;7200;128;5;53;55;8400;3000;3785;3738;1;12939;22.34;32.44;32,1;BCS1388054;2;18
009793;25.08.2021;08:15:19;Charge to 60% ;04.12.2018;FEY;;LION;49;14500;7200;192;5;53;55;8400;3000;3700;3700;1;12978;30.54;32.04;33,5;BCS1388054;2;18
009793;25.08.2021;10:43:17;Stop          ;04.12.2018;FEY;;LION;49;14500;7200;192;5;57;60;8400;3000;3751;3754;1;12977;32.74;34.64;36,4;BCS1388054;2;18
009793;01.11.2021;09:52:14;Normalcharge  ;04.12.2018;FEY;;LION;49;14500;7200;192;5;55;57;8400;3000;3719;3721;1;13001;25.94;26.44;26,3;BCS1388054;2;2
009793;01.11.2021;09:53:17;Stop          ;04.12.2018;FEY;;LION;49;14500;7200;128;5;55;57;8400;3000;3809;3761;1;12529;25.94;29.54;26,8;BCS1388054;2;2
009793;01.11.2021;10:02:05;Normalcharge  ;04.12.2018;FEY;;LION;49;14500;7200;192;5;55;57;8400;3000;3722;3723;1;12995;26.04;28.84;29,5;BCS1388054;2;2
009793;01.11.2021;10:03:24;Stop          ;04.12.2018;FEY;;LION;49;14500;7200;128;5;55;57;8400;3000;3815;3767;1;12527;26.14;31.54;29,3;BCS1388054;2;2
009793;01.11.2021;10:18:11;Normalcharge  ;04.12.2018;FEY;;LION;49;14500;7200;192;5;55;57;8400;3000;3726;3727;1;12996;26.24;27.54;28,4;BCS1388054;2;2
009793;01.11.2021;10:18:48;Stop          ;04.12.2018;FEY;;LION;49;14500;7200;128;5;55;58;8400;3000;3787;3754;1;12599;26.24;29.24;28,2;BCS1388054;2;2
009793;01.11.2021;10:28:53;Normalcharge  ;04.12.2018;FEY;;LION;49;14500;7200;192;5;55;58;8400;3000;3726;3727;1;12995;26.34;28.14;28,2;BCS1388054;2;2
009793;01.11.2021;10:29:00;Stop          ;04.12.2018;FEY;;LION;49;14500;7200;192;5;55;58;8400;3000;3726;3727;1;12983;26.34;28.24;28,4;BCS1388054;2;2
009793;01.11.2021;11:53:39;Stop          ;04.12.2018;FEY;;LION;49;14500;7200;192;5;57;60;8400;3000;3754;3756;1;12996;28.04;31.04;32,5;BCS1388054;2;2
009793;07.02.2022;08:50:52;Normalcharge  ;04.12.2018;FEY;;LION;49;14500;7200;192;5;56;59;8400;3000;3714;3716;1;13017;22.24;23.34;25,0;BCS1388054;5;5
009793;07.02.2022;13:22:36;Stop          ;04.12.2018;FEY;;LION;49;14500;7200;224;5;96;100;8400;;4158;4161;1;13011;26.84;27.24;28,5;BCS1388054;5;5

File: 009800.txt
Serialnumber ; Date ; Time ; Action ; Date of Manufacture ; Manufacturer ; Battery Name ; Device-Chemistry ; Specification-Info ; Design-Capacity [mAh] ; Design-Voltage [mV] ; Battery Status ; Cycle Count ; SOC [%] ; Relativ SOC[%] ; Desired Voltage [mV]; Desired Current [mA]; Cell Voltage 1 [mV] ; Cell Voltage 2 [mV] ; Max_Error [%] ; Busvoltage[mV] ; Battery Temperature [°C] ; Charger Temperature [°C] ; Batterysystem ; Case ; PLace
009800;12.01.2021;04:17:28;Ladung auf 90% ;03.12.2018;FEY;;LION;49;14500;7200;224;4;97;99;8400;;4129;4131;1;13009;23.24;23.44;23,6;BCS1388054;3;9
009800;12.01.2021;04:57:30;Stop           ;03.12.2018;FEY;;LION;49;14500;7200;192;4;89;90;8400;3000;4035;4036;1;13006;27.14;31.64;31,5;BCS1388054;3;9
009800;12.01.2021;05:21:45;Cycle          ;03.12.2018;FEY;;LION;49;14500;7200;192;4;89;90;8400;3000;4048;4051;1;13006;27.24;28.14;30,4;BCS1388054;3;9
009800;13.01.2021;08:23:25;Stop           ;03.12.2018;FEY;;LION;49;14500;7200;224;5;98;100;8400;;4156;4157;1;13004;27.44;28.14;31,4;BCS1388054;3;9
009800;21.02.2021;13:43:19;Normalcharge  ;03.12.2018;FEY;;LION;49;14500;7200;192;5;78;79;8400;3000;3935;3935;1;13003;23.74;26.54;27,5;BCS1388054;1;3
009800;22.02.2021;17:08:49;Stop          ;03.12.2018;FEY;;LION;49;14500;7200;224;5;98;100;8400;;4148;4149;1;13004;26.24;28.24;30,0;BCS1388054;1;3
009800;06.04.2021;08:39:16;Normalcharge  ;03.12.2018;FEY;;LION;49;14500;7200;224;5;97;99;8400;;4128;4129;1;13002;21.54;24.44;28,1;BCS1388054;6;12
009800;06.04.2021;08:40:03;Stop          ;03.12.2018;FEY;;LION;49;14500;7200;224;5;97;99;8400;;4128;4129;1;12981;21.64;24.54;28,5;BCS1388054;6;12
009800;08.04.2021;07:58:44;Normalcharge  ;03.12.2018;FEY;;LION;49;14500;7200;224;5;96;99;8400;;4128;4129;1;13008;25.34;24.24;26,4;BCS1388054;6;12
009800;08.04.2021;07:59:23;Stop          ;03.12.2018;FEY;;LION;49;14500;7200;224;5;96;99;8400;;4128;4128;1;13006;25.34;24.84;26,7;BCS1388054;6;12
009800;08.04.2021;10:36:16;Normalcharge  ;03.12.2018;FEY;;LION;49;14500;7200;224;5;96;99;8400;;4128;4128;1;13005;25.54;25.34;28,6;BCS1388054;6;12
009800;08.04.2021;10:37:11;Stop          ;03.12.2018;FEY;;LION;49;14500;7200;224;5;96;99;8400;;4128;4128;1;12983;25.54;25.54;29,2;BCS1388054;6;12
009800;18.04.2021;08:34:33;Normalcharge  ;03.12.2018;FEY;;LION;49;14500;7200;224;5;96;99;8400;;4124;4125;1;13003;26.24;26.14;28,2;BCS1388054;6;12
009800;18.04.2021;08:34:41;Stop          ;03.12.2018;FEY;;LION;49;14500;7200;224;5;96;99;8400;;4125;4125;1;13003;26.24;26.04;28,2;BCS1388054;6;12
009800;04.08.2021;07:24:35;Normalcharge  ;03.12.2018;FEY;;LION;49;14500;7200;192;5;94;96;8400;;4094;4094;1;13000;30.24;29.94;31,5;BCS1388054;6;12
009800;04.08.2021;07:25:17;Stop          ;03.12.2018;FEY;;LION;49;14500;7200;192;5;94;96;8400;;4094;4094;1;12985;30.24;30.14;31,6;BCS1388054;6;12
009800;22.08.2021;11:37:21;Normalcharge  ;03.12.2018;FEY;;LION;49;14500;7200;192;5;88;91;8400;3000;4044;4044;1;13008;21.64;28.44;31,9;BCS1388054;5;16
009800;22.08.2021;11:38:04;Stop          ;03.12.2018;FEY;;LION;49;14500;7200;128;5;88;91;8400;3000;4110;4079;1;12758;21.74;29.84;32,0;BCS1388054;5;16

File: 009808.txt
Serialnumber ; Date ; Time ; Action ; Date of Manufacture ; Manufacturer ; Battery Name ; Device-Chemistry ; Specification-Info ; Design-Capacity [mAh] ; Design-Voltage [mV] ; Battery Status ; Cycle Count ; SOC [%] ; Relativ SOC[%] ; Desired Voltage [mV]; Desired Current [mA]; Cell Voltage 1 [mV] ; Cell Voltage 2 [mV] ; Max_Error [%] ; Busvoltage[mV] ; Battery Temperature [°C] ; Charger Temperature [°C] ; Batterysystem ; Case ; PLace
009808;29.11.2020;04:25:09;Cycle         ;03.12.2018;FEY;;LION;49;14500;7200;192;3;82;81;8400;3000;3942;3943;1;12995;25.14;25.34;25,6;BCS1388054;1;1
009808;12.01.2021;04:17:28;Ladung auf 90% ;03.12.2018;FEY;;LION;49;14500;7200;192;4;96;98;8400;;4128;4127;1;13005;23.04;22.44;23,6;BCS1388054;3;11
009808;12.01.2021;04:57:30;Stop           ;03.12.2018;FEY;;LION;49;14500;7200;192;4;85;90;8400;3000;4042;4041;1;13001;27.24;28.34;31,5;BCS1388054;3;11
009808;12.01.2021;05:21:45;Cycle          ;03.12.2018;FEY;;LION;49;14500;7200;192;4;85;90;8400;3000;4050;4050;1;13001;27.24;26.64;30,4;BCS1388054;3;11
009808;13.01.2021;08:23:25;Stop           ;03.12.2018;FEY;;LION;49;14500;7200;224;5;96;100;8400;;4156;4156;1;13001;27.04;26.54;31,4;BCS1388054;3;11
009808;21.02.2021;13:43:32;Normalcharge  ;03.12.2018;FEY;;LION;49;14500;7200;192;6;43;45;8400;3000;3626;3626;1;13011;23.14;24.94;27,5;BCS1388054;2;9
009808;21.02.2021;19:27:00;Stop          ;03.12.2018;FEY;;LION;49;14500;7200;224;6;96;100;8400;;4158;4160;1;13011;27.34;28.04;31,1;BCS1388054;2;9
009808;04.04.2021;11:50:28;Normalcharge  ;03.12.2018;FEY;;LION;49;14500;7200;224;6;95;99;8400;;4130;4131;1;13014;25.04;26.54;27,9;BCS1388054;3;3
009808;04.04.2021;11:51:43;Stop           ;03.12.2018;FEY;;LION;49;14500;7200;224;6;95;99;8400;;4130;4131;1;12799;25.04;27.14;28,6;BCS1388054;3;3
009808;22.08.2021;11:07:56;Normalcharge  ;03.12.2018;FEY;;LION;49;14500;7200;192;6;85;88;8400;3000;3981;3983;1;12986;22.34;29.64;32,0;BCS1388054;2;13
009808;22.08.2021;11:08:29;Stop          ;03.12.2018;FEY;;LION;49;14500;7200;128;6;85;88;8400;3000;4045;4013;1;12575;22.44;30.94;32,4;BCS1388054;2;13
009808;14.10.2021;12:39:58;Normalcharge  ;03.12.2018;FEY;;LION;49;14500;7200;192;7;59;60;8400;3000;3749;3751;1;13000;24.64;27.24;27,9;BCS1388054;2;10
009808;14.10.2021;12:41:25;Stop          ;03.12.2018;FEY;;LION;49;14500;7200;128;7;59;61;8400;3000;3842;3797;1;12565;24.74;30.64;28,2;BCS1388054;2;10
009808;01.11.2021;09:52:15;Normalcharge  ;03.12.2018;FEY;;LION;49;14500;7200;192;7;58;60;8400;3000;3743;3745;1;13001;25.74;27.04;26,3;BCS1388054;2;10
009808;01.11.2021;09:53:18;Stop          ;03.12.2018;FEY;;LION;49;14500;7200;128;7;59;60;8400;3000;3831;3788;1;12508;25.74;29.54;26,8;BCS1388054;2;10
009808;01.11.2021;10:02:05;Normalcharge  ;03.12.2018;FEY;;LION;49;14500;7200;192;7;59;60;8400;3000;3746;3748;1;12994;25.84;28.44;29,5;BCS1388054;2;10
009808;01.11.2021;10:03:24;Stop          ;03.12.2018;FEY;;LION;49;14500;7200;128;7;59;60;8400;3000;3839;3794;1;12493;25.94;31.24;29,3;BCS1388054;2;10
009808;07.02.2022;08:51:04;Normalcharge  ;03.12.2018;FEY;;LION;49;14500;7200;192;7;57;58;8400;3000;3716;3717;1;13009;22.24;22.64;25,1;BCS1388054;3;2
009808;07.02.2022;14:32:56;Stop           ;03.12.2018;FEY;;LION;49;14500;7200;224;7;99;100;8400;;4154;4157;1;13006;25.74;26.84;30,8;BCS1388054;3;2
009808;14.03.2022;12:14:26;Normalcharge  ;03.12.2018;FEY;;LION;49;14500;7200;224;7;97;99;8400;;4131;4133;1;13019;23.94;24.64;27,5;BCS1388054;5;8
009808;14.03.2022;12:18:30;Stop          ;03.12.2018;FEY;;LION;49;14500;7200;224;7;97;99;8400;;4130;4132;1;13016;23.94;25.84;29,5;BCS1388054;5;8
009808;29.03.2022;08:20:53;Normalcharge  ;03.12.2018;FEY;;LION;49;14500;7200;192;7;84;87;8400;3000;4008;4010;1;13000;24.74;25.54;25,7;BCS1388054;5;7
009808;29.03.2022;08:21:28;Stop          ;03.12.2018;FEY;;LION;49;14500;7200;128;7;84;87;8400;3000;4025;4021;1;12830;24.74;26.94;25,8;BCS1388054;5;7
009808;29.03.2022;08:22:15;Normalcharge  ;03.12.2018;FEY;;LION;49;14500;7200;128;7;84;87;8400;3000;4008;4013;1;12998;24.74;26.54;26,3;BCS1388054;5;7
009808;29.03.2022;08:22:21;Stop          ;03.12.2018;FEY;;LION;49;14500;7200;128;7;84;87;8400;3000;4008;4013;1;12988;24.74;26.54;26,3;BCS1388054;5;7
009808;17.05.2022;08:54:06;Normalcharge  ;03.12.2018;FEY;;LION;49;14500;7200;192;7;84;87;8400;3000;3992;3995;1;12998;28.04;31.34;30,8;BCS1388054;1;15
009808;17.05.2022;11:50:11;Stop          ;03.12.2018;FEY;;LION;49;14500;7200;224;7;97;100;8400;;4154;4157;1;12995;30.84;33.74;34,5;BCS1388054;1;15

File: 009809.txt
Serialnumber ; Date ; Time ; Action ; Date of Manufacture ; Manufacturer ; Battery Name ; Device-Chemistry ; Specification-Info ; Design-Capacity [mAh] ; Design-Voltage [mV] ; Battery Status ; Cycle Count ; SOC [%] ; Relativ SOC[%] ; Desired Voltage [mV]; Desired Current [mA]; Cell Voltage 1 [mV] ; Cell Voltage 2 [mV] ; Max_Error [%] ; Busvoltage[mV] ; Battery Temperature [°C] ; Charger Temperature [°C] ; Batterysystem ; Case ; PLace
009809;07.12.2020;04:14:32;Cycle         ;03.12.2018;FEY;;LION;49;14500;7200;192;3;96;98;8400;;4145;4143;1;13003;24.94;26.74;30,3;BCS1388054;5;10
009809;08.12.2020;16:20:01;Stop          ;03.12.2018;FEY;;LION;49;14500;7200;192;3;96;98;8400;;4143;4141;1;13001;27.04;28.24;31,7;BCS1388054;5;10
009809;07.02.2021;08:46:53;Normalcharge  ;03.12.2018;FEY;;LION;49;14500;7200;192;3;94;97;8400;;4119;4118;1;12995;22.84;26.04;29,2;BCS1388054;3;8
009809;07.02.2021;11:52:16;Stop           ;03.12.2018;FEY;;LION;49;14500;7200;192;3;94;97;8400;;4119;4118;1;12994;25.24;27.64;29,7;BCS1388054;3;8
009809;03.03.2021;08:17:40;Normalcharge  ;03.12.2018;FEY;;LION;49;14500;7200;192;4;68;70;8400;3000;3864;3863;1;12995;22.44;24.24;23,6;BCS1388054;6;13
009809;03.03.2021;11:56:52;Stop          ;03.12.2018;FEY;;LION;49;14500;7200;224;4;98;100;8400;;4158;4158;1;12989;27.94;30.44;31,7;BCS1388054;6;13
009809;04.04.2021;11:50:33;Normalcharge  ;03.12.2018;FEY;;LION;49;14500;7200;192;4;51;54;8400;3000;3688;3689;1;13002;24.24;27.24;27,9;BCS1388054;2;10
009809;04.04.2021;11:51:48;Stop          ;03.12.2018;FEY;;LION;49;14500;7200;128;4;51;54;8400;3000;3778;3728;1;12589;24.24;29.94;28,6;BCS1388054;2;10
009809;05.04.2021;09:38:17;Charge to 60% ;03.12.2018;FEY;;LION;49;14500;7200;192;4;51;54;8400;3000;3690;3691;1;13012;24.34;26.04;26,4;BCS1388054;5;4
009809;05.04.2021;10:34:50;Charge to 60% ;03.12.2018;FEY;;LION;49;14500;7200;192;4;57;60;8400;3000;3761;3762;1;12917;26.64;29.24;32,4;BCS1388054;5;4
009809;05.04.2021;13:16:09;Stop          ;03.12.2018;FEY;;LION;49;14500;7200;192;4;57;60;8400;3000;3759;3760;1;13007;26.84;29.24;32,2;BCS1388054;5;4
009809;22.08.2021;11:37:21;Normalcharge  ;03.12.2018;FEY;;LION;49;14500;7200;192;4;52;54;8400;3000;3688;3688;1;13010;20.84;29.94;31,9;BCS1388054;5;5
009809;22.08.2021;11:38:04;Stop          ;03.12.2018;FEY;;LION;49;14500;7200;128;4;52;54;8400;3000;3759;3718;1;12761;20.94;31.44;32,0;BCS1388054;5;5
009809;25.08.2021;08:15:02;Charge to 60% ;03.12.2018;FEY;;LION;49;14500;7200;192;4;52;54;8400;3000;3690;3690;1;13009;29.64;32.64;33,2;BCS1388054;5;5
009809;25.08.2021;13:03:31;Stop          ;03.12.2018;FEY;;LION;49;14500;7200;192;4;57;60;8400;3000;3749;3750;1;13007;31.94;34.84;36,6;BCS1388054;5;5
009809;01.11.2021;10:18:20;Normalcharge  ;03.12.2018;FEY;;LION;49;14500;7200;192;4;55;57;8400;3000;3717;3717;1;13006;25.34;27.04;28,4;BCS1388054;4;1
009809;01.11.2021;10:19:02;Stop          ;03.12.2018;FEY;;LION;49;14500;7200;128;4;55;57;8400;3000;3793;3749;1;12599;25.34;28.74;28,2;BCS1388054;4;1
009809;01.11.2021;10:28:22;Normalcharge  ;03.12.2018;FEY;;LION;49;14500;7200;192;4;55;57;8400;3000;3718;3718;1;13006;25.44;27.34;27,9;BCS1388054;4;1
009809;01.11.2021;10:29:09;Stop          ;03.12.2018;FEY;;LION;49;14500;7200;128;4;55;57;8400;3000;3804;3756;1;12596;25.44;29.34;28,5;BCS1388054;4;1
009809;01.11.2021;10:32:29;Charge to 60% ;03.12.2018;FEY;;LION;49;14500;7200;192;4;55;57;8400;3000;3720;3720;1;13004;25.44;27.94;29,7;BCS1388054;4;1
009809;01.11.2021;15:19:33;Stop          ;03.12.2018;FEY;;LION;49;14500;7200;192;4;57;60;8400;3000;3750;3751;1;13005;27.74;30.24;32,7;BCS1388054;4;1
009809;09.02.2022;08:16:56;Normalcharge  ;03.12.2018;FEY;;LION;49;14500;7200;192;4;54;56;8400;3000;3710;3711;1;13013;21.74;23.54;23,1;BCS1388054;2;5
009809;09.02.2022;12:43:52;Stop          ;03.12.2018;FEY;;LION;49;14500;7200;224;4;96;100;8400;;4161;4161;1;13006;25.24;27.14;29,9;BCS1388054;2;5