Folder: Battery_sort_V2/reader/Batterieverzeichnis_new (part 17)

File: 009831.txt
Serialnumber ; Date ; Time ; Action ; Date of Manufacture ; Manufacturer ; Battery Name ; Device-Chemistry ; Specification-Info ; Design-Capacity [mAh] ; Design-Voltage [mV] ; Battery Status ; Cycle Count ; SOC [%] ; Relativ SOC[%] ; Desired Voltage [mV]; Desired Current [mA]; Cell Voltage 1 [mV] ; Cell Voltage 2 [mV] ; Max_Error [%] ; Busvoltage[mV] ; Battery Temperature [°C] ; Charger Temperature [°C] ; Batterysystem ; Case ; PLace
009831;30.11.2020;09:42:55;Stop          ;03.12.2018;FEY;;LION;49;14500;7200;16576;3;98;98;;;4152;4152;1;13030;27.64;28.84;31,7;BCS1388054;7;5
009831;07.12.2020;04:14:28;Cycle         ;03.12.2018;FEY;;LION;49;14500;7200;16576;3;97;98;;;4147;4147;1;13007;25.84;27.44;30,3;BCS1388054;4;13
009831;08.12.2020;16:19:56;Stop          ;03.12.2018;FEY;;LION;49;14500;7200;16576;3;97;98;;;4144;4144;1;13006;27.84;29.04;31,9;BCS1388054;4;13
009831;12.01.2021;04:17:33;Charge to 90% ;03.12.2018;FEY;;LION;49;14500;7200;16576;3;96;97;;;4129;4129;1;12996;23.14;24.34;23,6;BCS1388054;4;2
009831;12.01.2021;04:57:16;Stop          ;03.12.2018;FEY;;LION;49;14500;7200;192;3;90;90;8400;3000;4061;4061;1;12992;26.94;30.74;31,6;BCS1388054;4;2
009831;12.01.2021;05:21:49;Cycle         ;03.12.2018;FEY;;LION;49;14500;7200;192;3;90;90;8400;3000;4065;4065;1;12992;27.14;29.34;30,4;BCS1388054;4;2
009831;13.01.2021;08:19:19;Stop          ;03.12.2018;FEY;;LION;49;14500;7200;224;4;98;100;8400;;4156;4157;1;12992;27.24;29.24;30,7;BCS1388054;4;2
009831;21.02.2021;13:43:32;Normalcharge  ;03.12.2018;FEY;;LION;49;14500;7200;192;5;73;75;8400;3000;3896;3896;1;13003;23.34;25.34;27,5;BCS1388054;2;8
009831;21.02.2021;19:27:00;Stop          ;03.12.2018;FEY;;LION;49;14500;7200;224;5;97;100;8400;;4153;4153;1;13003;27.34;28.54;31,1;BCS1388054;2;8
009831;04.04.2021;11:50:02;Normalcharge  ;03.12.2018;FEY;;LION;49;14500;7200;192;5;52;54;8400;3000;3681;3680;1;13000;25.04;26.14;27,7;BCS1388054;6;8
009831;04.04.2021;11:51:24;Stop          ;03.12.2018;FEY;;LION;49;14500;7200;128;5;52;54;8400;3000;3769;3721;1;12667;25.04;29.24;28,5;BCS1388054;6;8
009831;05.04.2021;09:38:11;Charge to 60% ;03.12.2018;FEY;;LION;49;14500;7200;192;5;52;54;8400;3000;3683;3683;1;13006;25.04;25.14;26,3;BCS1388054;4;9
009831;05.04.2021;10:13:52;Stop          ;03.12.2018;FEY;;LION;49;14500;7200;192;5;58;60;8400;3000;3755;3752;1;13004;27.54;28.64;32,1;BCS1388054;4;9
009831;22.08.2021;11:07:50;Normalcharge  ;03.12.2018;FEY;;LION;49;14500;7200;192;5;44;45;8400;3000;3617;3617;1;12996;22.54;31.44;32,0;BCS1388054;1;3
009831;22.08.2021;11:08:23;Stop          ;03.12.2018;FEY;;LION;49;14500;7200;128;5;44;45;8400;3000;3674;3642;1;12639;22.64;32.44;32,4;BCS1388054;1;3
009831;25.08.2021;08:14:57;Charge to 60% ;03.12.2018;FEY;;LION;49;14500;7200;192;5;44;45;8400;3000;3619;3619;1;13004;30.34;32.64;33,2;BCS1388054;6;15
009831;25.08.2021;09:50:39;Stop          ;03.12.2018;FEY;;LION;49;14500;7200;192;5;58;60;8400;3000;3735;3735;1;13004;34.44;36.44;36,4;BCS1388054;6;15
009831;01.11.2021;09:52:11;Normalcharge  ;03.12.2018;FEY;;LION;49;14500;7200;192;6;50;51;8400;3000;3663;3664;1;13003;24.24;25.54;26,4;BCS1388054;3;12
009831;01.11.2021;09:53:27;Stop           ;03.12.2018;FEY;;LION;49;14500;7200;128;6;50;51;8400;3000;3753;3704;1;12592;24.34;27.64;27,1;BCS1388054;3;12
009831;01.11.2021;10:02:09;Normalcharge  ;03.12.2018;FEY;;LION;49;14500;7200;192;6;50;51;8400;3000;3666;3666;1;12999;24.94;26.74;29,5;BCS1388054;3;12
009831;01.11.2021;10:03:20;Stop           ;03.12.2018;FEY;;LION;49;14500;7200;128;6;50;51;8400;3000;3754;3706;1;12585;25.04;28.44;29,5;BCS1388054;3;12
009831;01.11.2021;10:18:16;Normalcharge  ;03.12.2018;FEY;;LION;49;14500;7200;192;6;50;51;8400;3000;3667;3667;1;13001;25.44;26.74;28,2;BCS1388054;3;12
009831;01.11.2021;10:18:56;Stop           ;03.12.2018;FEY;;LION;49;14500;7200;128;6;50;51;8400;3000;3746;3701;1;12601;25.54;27.84;28,2;BCS1388054;3;12
009831;01.11.2021;10:27:50;Normalcharge  ;03.12.2018;FEY;;LION;49;14500;7200;192;6;50;51;8400;3000;3668;3668;1;13002;25.74;26.94;27,8;BCS1388054;3;12
009831;01.11.2021;10:29:05;Stop           ;03.12.2018;FEY;;LION;49;14500;7200;128;6;50;52;8400;3000;3755;3708;1;12555;25.74;28.64;28,5;BCS1388054;3;12
009831;01.11.2021;10:32:24;Ladung auf 60% ;03.12.2018;FEY;;LION;49;14500;7200;192;6;50;52;8400;3000;3671;3671;1;12999;25.94;27.34;29,7;BCS1388054;3;12
009831;01.11.2021;15:19:46;Stop           ;03.12.2018;FEY;;LION;49;14500;7200;192;6;58;60;8400;3000;3748;3747;1;12999;28.64;29.24;32,7;BCS1388054;3;12
009831;09.02.2022;08:16:56;Normalcharge  ;03.12.2018;FEY;;LION;49;14500;7200;192;6;55;56;8400;3000;3708;3709;1;13009;22.44;23.64;23,1;BCS1388054;2;10
009831;09.02.2022;12:43:52;Stop          ;03.12.2018;FEY;;LION;49;14500;7200;224;6;98;100;8400;;4162;4163;1;13002;26.34;27.54;29,9;BCS1388054;2;10

File: 009833.txt
Serialnumber ; Date ; Time ; Action ; Date of Manufacture ; Manufacturer ; Battery Name ; Device-Chemistry ; Specification-Info ; Design-Capacity [mAh] ; Design-Voltage [mV] ; Battery Status ; Cycle Count ; SOC [%] ; Relativ SOC[%] ; Desired Voltage [mV]; Desired Current [mA]; Cell Voltage 1 [mV] ; Cell Voltage 2 [mV] ; Max_Error [%] ; Busvoltage[mV] ; Battery Temperature [°C] ; Charger Temperature [°C] ; Batterysystem ; Case ; PLace
009833;07.12.2020;04:14:25;Cycle          ;03.12.2018;FEY;;LION;49;14500;7200;224;1;97;99;8400;;4129;4129;1;13001;25.44;28.24;30,3;BCS1388054;3;1
009833;08.12.2020;16:19:50;Stop           ;03.12.2018;FEY;;LION;49;14500;7200;224;2;96;99;8400;;4153;4152;1;13000;27.64;29.84;31,9;BCS1388054;3;1
009833;03.03.2021;08:17:17;Normalcharge  ;03.12.2018;FEY;;LION;49;14500;7200;192;2;92;95;8400;3000;4090;4089;1;12998;22.94;23.44;23,5;BCS1388054;2;15
009833;04.03.2021;07:53:46;Stop          ;03.12.2018;FEY;;LION;49;14500;7200;224;2;97;100;8400;;4147;4147;1;12991;26.24;28.34;31,6;BCS1388054;2;15
009833;04.04.2021;11:50:22;Normalcharge  ;03.12.2018;FEY;;LION;49;14500;7200;224;2;96;99;8400;;4133;4133;1;13003;24.94;25.94;27,9;BCS1388054;4;15
009833;04.04.2021;11:51:36;Stop          ;03.12.2018;FEY;;LION;49;14500;7200;224;2;96;99;8400;;4133;4133;1;12724;24.94;26.34;28,6;BCS1388054;4;15
009833;22.08.2021;11:37:25;Normalcharge  ;03.12.2018;FEY;;LION;49;14500;7200;192;3;28;31;8400;3000;3565;3565;1;13009;20.84;28.74;31,9;BCS1388054;4;10
009833;22.08.2021;11:38:13;Stop          ;03.12.2018;FEY;;LION;49;14500;7200;128;3;28;31;8400;3000;3641;3598;1;12630;20.94;30.94;32,1;BCS1388054;4;10
009833;25.08.2021;08:15:08;Charge to 60% ;03.12.2018;FEY;;LION;49;14500;7200;192;3;28;31;8400;3000;3568;3567;1;13006;30.24;32.34;33,4;BCS1388054;4;10
009833;25.08.2021;12:59:17;Stop          ;03.12.2018;FEY;;LION;49;14500;7200;192;3;55;60;8400;3000;3745;3746;1;13005;32.54;34.54;36,6;BCS1388054;4;10
009833;01.11.2021;09:52:20;Normalcharge  ;03.12.2018;FEY;;LION;49;14500;7200;192;3;50;55;8400;3000;3712;3712;1;13004;25.74;27.14;26,4;BCS1388054;1;3
009833;01.11.2021;09:53:13;Stop          ;03.12.2018;FEY;;LION;49;14500;7200;128;3;50;55;8400;3000;3797;3750;1;12482;25.74;29.44;26,8;BCS1388054;1;3
009833;01.11.2021;10:01:59;Normalcharge  ;03.12.2018;FEY;;LION;49;14500;7200;192;3;51;55;8400;3000;3714;3714;1;12999;25.84;28.94;29,5;BCS1388054;1;3
009833;01.11.2021;10:03:29;Stop          ;03.12.2018;FEY;;LION;49;14500;7200;128;3;51;55;8400;3000;3806;3759;1;12473;25.84;31.94;29,3;BCS1388054;1;3
009833;01.11.2021;10:27:58;Normalcharge  ;03.12.2018;FEY;;LION;49;14500;7200;192;3;51;55;8400;3000;3718;3718;1;13000;26.04;27.54;27,8;BCS1388054;1;3
009833;01.11.2021;10:28:31;Stop          ;03.12.2018;FEY;;LION;49;14500;7200;128;3;51;55;8400;3000;3751;3731;1;12690;26.14;28.84;28,1;BCS1388054;1;3
009833;01.11.2021;10:31:48;Charge to 60% ;03.12.2018;FEY;;LION;49;14500;7200;192;3;51;55;8400;3000;3718;3719;1;13000;26.14;25.54;29,9;BCS1388054;1;3
009833;01.11.2021;11:39:51;Stop          ;03.12.2018;FEY;;LION;49;14500;7200;192;3;55;60;8400;3000;3783;3785;1;12999;27.64;30.24;32,5;BCS1388054;1;3
009833;09.02.2022;08:16:56;Normalcharge  ;03.12.2018;FEY;;LION;49;14500;7200;192;3;51;56;8400;3000;3725;3726;1;13014;22.44;22.74;23,1;BCS1388054;2;16
009833;09.02.2022;12:43:52;Stop          ;03.12.2018;FEY;;LION;49;14500;7200;224;3;92;100;8400;;4159;4160;1;13006;25.84;26.74;29,9;BCS1388054;2;16

File: 009841.txt
Serialnumber ; Date ; Time ; Action ; Date of Manufacture ; Manufacturer ; Battery Name ; Device-Chemistry ; Specification-Info ; Design-Capacity [mAh] ; Design-Voltage [mV] ; Battery Status ; Cycle Count ; SOC [%] ; Relativ SOC[%] ; Desired Voltage [mV]; Desired Current [mA]; Cell Voltage 1 [mV] ; Cell Voltage 2 [mV] ; Max_Error [%] ; Busvoltage[mV] ; Battery Temperature [°C] ; Charger Temperature [°C] ; Batterysystem ; Case ; PLace
009841;07.12.2020;04:14:21;Cycle         ;04.12.2018;FEY;;LION;49;14500;7200;16576;3;97;99;;;4155;4159;1;12997;25.74;27.64;30,3;BCS1388054;2;12
009841;08.12.2020;16:19:44;Stop          ;04.12.2018;FEY;;LION;49;14500;7200;16576;3;97;99;;;4153;4156;1;12997;27.44;28.94;31,9;BCS1388054;2;12
009841;07.02.2021;08:46:48;Normalcharge  ;04.12.2018;FEY;;LION;49;14500;7200;16576;3;96;97;;;4126;4128;1;13001;23.44;26.74;29,2;BCS1388054;2;2
009841;07.02.2021;11:52:12;Stop          ;04.12.2018;FEY;;LION;49;14500;7200;16576;3;96;97;;;4126;4128;1;13001;25.64;28.14;29,7;BCS1388054;2;2
009841;03.03.2021;08:17:17;Normalcharge  ;04.12.2018;FEY;;LION;49;14500;7200;16576;3;94;96;;;4108;4111;1;13010;22.94;23.64;23,5;BCS1388054;2;2
009841;04.03.2021;07:53:45;Stop          ;04.12.2018;FEY;;LION;49;14500;7200;16576;3;94;96;;;4108;4110;1;13002;26.24;28.74;31,6;BCS1388054;2;2
009841;04.04.2021;11:50:33;Normalcharge  ;04.12.2018;FEY;;LION;49;14500;7200;192;3;50;51;8400;3000;3669;3670;1;13004;24.84;27.24;27,9;BCS1388054;2;2
009841;04.04.2021;11:51:48;Stop          ;04.12.2018;FEY;;LION;49;14500;7200;128;3;50;51;8400;3000;3754;3709;1;12614;24.94;30.24;28,6;BCS1388054;2;2
009841;05.04.2021;09:38:17;Charge to 60% ;04.12.2018;FEY;;LION;49;14500;7200;192;3;50;51;8400;3000;3670;3671;1;13012;24.94;25.94;26,4;BCS1388054;5;9
009841;05.04.2021;10:34:50;Charge to 60% ;04.12.2018;FEY;;LION;49;14500;7200;192;3;59;60;8400;3000;3766;3768;1;12913;27.94;29.34;32,4;BCS1388054;5;9
009841;05.04.2021;13:16:09;Stop          ;04.12.2018;FEY;;LION;49;14500;7200;192;3;59;60;8400;3000;3763;3765;1;13009;27.64;29.24;32,2;BCS1388054;5;9
009841;22.08.2021;11:37:21;Normalcharge  ;04.12.2018;FEY;;LION;49;14500;7200;192;3;39;40;8400;3000;3602;3603;1;13000;21.54;28.64;31,9;BCS1388054;5;6
009841;22.08.2021;11:38:04;Stop          ;04.12.2018;FEY;;LION;49;14500;7200;128;3;39;40;8400;3000;3667;3632;1;12747;21.74;29.94;32,0;BCS1388054;5;6
009841;25.08.2021;08:15:02;Charge to 60% ;04.12.2018;FEY;;LION;49;14500;7200;192;3;39;40;8400;3000;3605;3605;1;12999;30.14;30.84;33,2;BCS1388054;5;6
009841;25.08.2021;13:03:31;Stop          ;04.12.2018;FEY;;LION;49;14500;7200;192;3;58;60;8400;3000;3753;3755;1;12996;32.34;32.74;36,6;BCS1388054;5;6
009841;28.12.2021;09:01:25;Normalcharge  ;04.12.2018;FEY;;LION;49;14500;7200;192;4;33;33;8400;3000;3561;3561;1;13015;23.34;24.44;25,3;BCS1388054;3;3
009841;28.12.2021;09:02:24;Stop           ;04.12.2018;FEY;;LION;49;14500;7200;128;4;33;33;8400;3000;3649;3599;1;12577;23.44;26.84;25,8;BCS1388054;3;3
009841;28.12.2021;09:21:48;Charge to 60% ;04.12.2018;FEY;;LION;49;14500;7200;192;4;33;33;8400;3000;3562;3563;1;13016;23.44;15.94;26,1;BCS1388054;4;18
009841;28.12.2021;12:53:01;Stop          ;04.12.2018;FEY;;LION;49;14500;7200;192;4;59;60;8400;3000;3746;3747;1;12992;24.74;25.04;27,8;BCS1388054;4;18
009841;07.02.2022;08:50:37;Normalcharge  ;04.12.2018;FEY;;LION;49;14500;7200;192;4;57;58;8400;3000;3723;3724;1;13015;22.04;21.84;25,0;BCS1388054;7;9
009841;07.02.2022;14:21:07;Stop          ;04.12.2018;FEY;;LION;49;14500;7200;224;4;99;100;8400;;4156;4157;1;13008;25.24;25.84;28,9;BCS1388054;7;9
009841;13.03.2022;12:10:09;Normalcharge  ;04.12.2018;FEY;;LION;49;14500;7200;192;4;63;65;8400;3000;3792;3792;1;13009;23.94;25.04;25,6;BCS1388054;3;13
009841;13.03.2022;12:10:50;Stop           ;04.12.2018;FEY;;LION;49;14500;7200;128;4;63;65;8400;3000;3824;3808;1;12763;23.94;26.54;25,7;BCS1388054;3;13
009841;14.03.2022;10:33:46;Normalcharge  ;04.12.2018;FEY;;LION;49;14500;7200;192;4;63;65;8400;3000;3792;3792;1;13002;24.04;24.54;25,1;BCS1388054;6;1
009841;14.03.2022;10:38:06;Stop          ;04.12.2018;FEY;;LION;49;14500;7200;128;4;64;66;8400;3000;3897;3852;1;12676;24.24;30.34;28,1;BCS1388054;6;1
009841;17.05.2022;08:54:25;Normalcharge  ;04.12.2018;FEY;;LION;49;14500;7200;192;4;62;64;8400;3000;3764;3764;1;13002;28.64;30.24;31,0;BCS1388054;5;4
009841;17.05.2022;13:10:23;Stop          ;04.12.2018;FEY;;LION;49;14500;7200;224;4;98;100;8400;;4161;4164;1;13000;32.84;33.64;34,0;BCS1388054;5;4

File: 009843.txt
Serialnumber ; Date ; Time ; Action ; Date of Manufacture ; Manufacturer ; Battery Name ; Device-Chemistry ; Specification-Info ; Design-Capacity [mAh] ; Design-Voltage [mV] ; Battery Status ; Cycle Count ; SOC [%] ; Relativ SOC[%] ; Desired Voltage [mV]; Desired Current [mA]; Cell Voltage 1 [mV] ; Cell Voltage 2 [mV] ; Max_Error [%] ; Busvoltage[mV] ; Battery Temperature [°C] ; Charger Temperature [°C] ; Batterysystem ; Case ; PLace
009843;07.02.2021;08:46:43;Normalcharge  ;03.12.2018;FEY;;LION;49;14500;7200;192;5;95;97;8400;;4111;4111;1;12990;24.04;25.94;29,2;BCS1388054;1;12
009843;07.02.2021;11:52:07;Stop          ;03.12.2018;FEY;;LION;49;14500;7200;192;5;95;97;8400;;4111;4112;1;12991;25.84;26.54;29,7;BCS1388054;1;12
009843;03.03.2021;08:17:21;Normalcharge  ;03.12.2018;FEY;;LION;49;14500;7200;192;5;88;91;8400;3000;4051;4052;1;13016;23.34;22.54;23,5;BCS1388054;3;17
009843;04.03.2021;07:53:40;Stop           ;03.12.2018;FEY;;LION;49;14500;7200;224;5;98;100;8400;;4146;4148;1;13009;26.64;27.14;31,5;BCS1388054;3;17
009843;04.04.2021;11:50:39;Normalcharge  ;03.12.2018;FEY;;LION;49;14500;7200;192;6;53;55;8400;3000;3695;3696;1;12996;25.14;25.74;28,1;BCS1388054;1;11
009843;04.04.2021;11:51:54;Stop          ;03.12.2018;FEY;;LION;49;14500;7200;128;6;53;55;8400;3000;3784;3737;1;12550;25.14;28.24;28,8;BCS1388054;1;11
009843;05.04.2021;09:38:00;Ladung auf 60% ;03.12.2018;FEY;;LION;49;14500;7200;192;6;53;55;8400;3000;3698;3699;1;13009;25.34;26.64;26,3;BCS1388054;3;13
009843;05.04.2021;10:06:07;Stop           ;03.12.2018;FEY;;LION;49;14500;7200;192;6;57;60;8400;3000;3761;3761;1;13006;27.34;31.14;31,4;BCS1388054;3;13
009843;22.08.2021;11:08:13;Normalcharge  ;03.12.2018;FEY;;LION;49;14500;7200;192;6;53;55;8400;3000;3701;3702;1;12999;30.04;29.64;32,2;BCS1388054;6;5
009843;22.08.2021;11:08:46;Stop          ;03.12.2018;FEY;;LION;49;14500;7200;128;6;53;55;8400;3000;3732;3715;1;12811;30.04;30.74;32,5;BCS1388054;6;5
009843;25.08.2021;08:13:04;Normalcharge  ;03.12.2018;FEY;;LION;49;14500;7200;192;6;53;55;8400;3000;3700;3702;1;13029;30.64;30.74;32,4;BCS1388054;7;14
009843;25.08.2021;08:13:16;Stop          ;03.12.2018;FEY;;LION;49;14500;7200;192;6;53;55;8400;3000;3700;3702;1;13018;30.64;30.94;32,5;BCS1388054;7;14
009843;25.08.2021;08:14:41;Charge to 60% ;03.12.2018;FEY;;LION;49;14500;7200;192;6;53;55;8400;3000;3701;3702;1;13028;30.64;31.14;33,0;BCS1388054;7;14
009843;25.08.2021;08:37:46;Stop          ;03.12.2018;FEY;;LION;49;14500;7200;192;6;57;60;8400;3000;3757;3758;1;12755;32.24;36.14;36,1;BCS1388054;7;14
009843;25.08.2021;08:38:03;Charge to 60% ;03.12.2018;FEY;;LION;49;14500;7200;192;6;57;60;8400;3000;3757;3758;1;13026;32.24;35.94;36,1;BCS1388054;7;14
009843;25.08.2021;13:26:36;Stop          ;03.12.2018;FEY;;LION;49;14500;7200;192;6;57;60;8400;3000;3751;3752;1;13026;33.14;34.04;36,4;BCS1388054;7;14
009843;01.11.2021;09:52:05;Normalcharge  ;03.12.2018;FEY;;LION;49;14500;7200;192;6;54;56;8400;3000;3708;3709;1;13006;24.44;24.74;26,3;BCS1388054;4;8
009843;01.11.2021;09:53:35;Stop          ;03.12.2018;FEY;;LION;49;14500;7200;128;6;55;56;8400;3000;3799;3754;1;12615;24.54;28.24;27,1;BCS1388054;4;8
009843;01.11.2021;10:02:14;Normalcharge  ;03.12.2018;FEY;;LION;49;14500;7200;192;6;55;56;8400;3000;3712;3714;1;13002;24.84;27.24;29,5;BCS1388054;4;8
009843;01.11.2021;10:03:16;Stop          ;03.12.2018;FEY;;LION;49;14500;7200;128;6;55;57;8400;3000;3799;3755;1;12598;24.94;29.44;29,3;BCS1388054;4;8
009843;01.11.2021;10:18:21;Normalcharge  ;03.12.2018;FEY;;LION;49;14500;7200;192;6;55;57;8400;3000;3714;3716;1;13002;25.34;26.44;28,4;BCS1388054;4;8
009843;01.11.2021;10:19:03;Stop          ;03.12.2018;FEY;;LION;49;14500;7200;128;6;55;57;8400;3000;3792;3750;1;12583;25.34;28.14;28,2;BCS1388054;4;8
009843;01.11.2021;10:28:22;Normalcharge  ;03.12.2018;FEY;;LION;49;14500;7200;192;6;55;57;8400;3000;3715;3716;1;13003;25.54;26.64;27,9;BCS1388054;4;8
009843;01.11.2021;10:29:09;Stop          ;03.12.2018;FEY;;LION;49;14500;7200;128;6;55;57;8400;3000;3799;3755;1;12577;25.54;28.64;28,5;BCS1388054;4;8
009843;01.11.2021;10:32:29;Charge to 60% ;03.12.2018;FEY;;LION;49;14500;7200;192;6;55;57;8400;3000;3716;3718;1;13002;25.64;27.24;29,7;BCS1388054;4;8
009843;01.11.2021;15:19:33;Stop          ;03.12.2018;FEY;;LION;49;14500;7200;192;6;58;60;8400;3000;3752;3753;1;13000;28.84;29.54;32,7;BCS1388054;4;8
009843;09.02.2022;08:16:46;Normalcharge  ;03.12.2018;FEY;;LION;49;14500;7200;192;6;57;58;8400;3000;3712;3713;1;13005;22.44;22.24;23,1;BCS1388054;3;12
009843;09.02.2022;12:49:54;Stop           ;03.12.2018;FEY;;LION;49;14500;7200;224;6;97;100;8400;;4159;4160;1;13002;25.84;25.54;29,9;BCS1388054;3;12
009843;14.03.2022;10:34:44;Normalcharge  ;03.12.2018;FEY;;LION;49;14500;7200;224;6;96;99;8400;;4129;4131;1;12996;24.54;26.14;26,0;BCS1388054;1;8
009843;14.03.2022;10:38:55;Stop          ;03.12.2018;FEY;;LION;49;14500;7200;224;6;96;99;8400;;4130;4131;1;12967;24.54;27.04;28,2;BCS1388054;1;8

File: 009845.txt
Serialnumber ; Date ; Time ; Action ; Date of Manufacture ; Manufacturer ; Battery Name ; Device-Chemistry ; Specification-Info ; Design-Capacity [mAh] ; Design-Voltage [mV] ; Battery Status ; Cycle Count ; SOC [%] ; Relativ SOC[%] ; Desired Voltage [mV]; Desired Current [mA]; Cell Voltage 1 [mV] ; Cell Voltage 2 [mV] ; Max_Error [%] ; Busvoltage[mV] ; Battery Temperature [°C] ; Charger Temperature [°C] ; Batterysystem ; Case ; PLace
009845;30.11.2020;09:44:38;Stop          ;03.12.2018;FEY;;LION;49;14500;7200;16576;3;100;100;;;4137;4135;1;12997;27.84;29.74;31,4;BCS1388054;2;17
009845;07.02.2021;08:46:48;Normalcharge  ;03.12.2018;FEY;;LION;49;14500;7200;16576;3;97;97;;;4112;4110;1;13002;23.74;26.14;29,2;BCS1388054;2;5
009845;07.02.2021;11:52:12;Stop          ;03.12.2018;FEY;;LION;49;14500;7200;16576;3;97;97;;;4112;4111;1;13005;25.84;27.24;29,7;BCS1388054;2;5
009845;03.03.2021;08:17:21;Normalcharge  ;03.12.2018;FEY;;LION;49;14500;7200;16576;3;94;94;;;4077;4076;1;13008;23.24;23.24;23,5;BCS1388054;3;1
009845;04.03.2021;07:53:39;Stop           ;03.12.2018;FEY;;LION;49;14500;7200;16576;3;94;94;;;4077;4076;1;12999;26.54;28.44;31,5;BCS1388054;3;1
009845;04.04.2021;11:50:28;Normalcharge  ;03.12.2018;FEY;;LION;49;14500;7200;16576;3;93;93;;;4070;4068;1;13006;25.04;26.94;27,9;BCS1388054;3;13
009845;04.04.2021;11:51:43;Stop           ;03.12.2018;FEY;;LION;49;14500;7200;16576;3;93;93;;;4070;4068;1;12794;25.04;27.14;28,6;BCS1388054;3;13
009845;22.08.2021;11:37:30;Normalcharge  ;03.12.2018;FEY;;LION;49;14500;7200;192;3;81;81;8400;3000;3919;3917;1;13012;21.14;28.04;31,9;BCS1388054;3;14
009845;22.08.2021;11:38:19;Stop           ;03.12.2018;FEY;;LION;49;14500;7200;128;3;81;81;8400;3000;4010;3960;1;12574;21.34;30.14;32,1;BCS1388054;3;14
009845;12.10.2021;12:58:56;Normalcharge  ;03.12.2018;FEY;;LION;49;14500;7200;192;3;81;81;8400;3000;3908;3907;1;12993;23.64;27.54;28,5;BCS1388054;6;10
009845;12.10.2021;12:59:25;Stop          ;03.12.2018;FEY;;LION;49;14500;7200;128;3;81;81;8400;3000;3911;3908;1;12961;23.64;28.54;28,6;BCS1388054;6;10
009845;14.10.2021;12:40:08;Normalcharge  ;03.12.2018;FEY;;LION;49;14500;7200;192;3;78;78;8400;3000;3886;3885;1;12998;25.34;26.14;27,9;BCS1388054;4;17
009845;14.10.2021;12:41:44;Stop          ;03.12.2018;FEY;;LION;49;14500;7200;128;3;78;78;8400;3000;3981;3931;1;12644;25.44;29.94;28,4;BCS1388054;4;17

File: 009848.txt
Serialnumber ; Date ; Time ; Action ; Date of Manufacture ; Manufacturer ; Battery Name ; Device-Chemistry ; Specification-Info ; Design-Capacity [mAh] ; Design-Voltage [mV] ; Battery Status ; Cycle Count ; SOC [%] ; Relativ SOC[%] ; Desired Voltage [mV]; Desired Current [mA]; Cell Voltage 1 [mV] ; Cell Voltage 2 [mV] ; Max_Error [%] ; Busvoltage[mV] ; Battery Temperature [°C] ; Charger Temperature [°C] ; Batterysystem ; Case ; PLace
009848;07.12.2020;04:14:28;Cycle         ;03.12.2018;FEY;;LION;49;14500;7200;16576;2;98;98;;;4152;4154;1;13001;25.54;27.04;30,3;BCS1388054;4;12
009848;08.12.2020;16:19:56;Stop          ;03.12.2018;FEY;;LION;49;14500;7200;16576;2;98;98;;;4149;4151;1;13000;27.44;28.04;31,9;BCS1388054;4;12
009848;12.01.2021;04:17:33;Charge to 90% ;03.12.2018;FEY;;LION;49;14500;7200;16576;2;97;97;;;4133;4134;1;13020;22.84;23.44;23,6;BCS1388054;4;4
009848;12.01.2021;04:57:16;Stop          ;03.12.2018;FEY;;LION;49;14500;7200;192;2;90;90;8400;3000;4060;4061;1;13015;27.04;28.94;31,6;BCS1388054;4;4
009848;12.01.2021;05:21:49;Cycle         ;03.12.2018;FEY;;LION;49;14500;7200;192;2;90;90;8400;3000;4065;4066;1;13016;27.04;27.44;30,4;BCS1388054;4;4
009848;13.01.2021;08:19:19;Stop          ;03.12.2018;FEY;;LION;49;14500;7200;224;3;97;100;8400;;4155;4156;1;13016;26.84;27.54;30,7;BCS1388054;4;4
009848;21.02.2021;13:45:29;Normalcharge  ;03.12.2018;FEY;;LION;49;14500;7200;224;3;96;99;8400;;4131;4132;1;13001;22.74;23.54;27,8;BCS1388054;6;10
009848;06.04.2021;08:38:40;Normalcharge  ;03.12.2018;FEY;;LION;49;14500;7200;192;3;95;98;8400;;4114;4115;1;12998;21.04;25.14;28,1;BCS1388054;1;5
009848;06.04.2021;08:39:29;Stop          ;03.12.2018;FEY;;LION;49;14500;7200;192;3;95;98;8400;;4115;4115;1;12995;21.04;25.54;28,2;BCS1388054;1;5
009848;08.04.2021;07:57:52;Normalcharge  ;03.12.2018;FEY;;LION;49;14500;7200;192;3;95;98;8400;;4115;4115;1;12997;25.04;25.24;26,3;BCS1388054;1;5
009848;08.04.2021;07:59:50;Stop          ;03.12.2018;FEY;;LION;49;14500;7200;192;3;95;98;8400;;4114;4115;1;12935;25.04;26.04;26,8;BCS1388054;1;5
009848;08.04.2021;10:34:34;Normalcharge  ;03.12.2018;FEY;;LION;49;14500;7200;192;3;95;98;8400;;4115;4115;1;12992;25.84;26.54;28,1;BCS1388054;1;5
009848;08.04.2021;10:36:49;Stop          ;03.12.2018;FEY;;LION;49;14500;7200;192;3;95;98;8400;;4115;4116;1;12876;25.84;26.94;28,9;BCS1388054;1;5
009848;18.04.2021;08:33:24;Normalcharge  ;03.12.2018;FEY;;LION;49;14500;7200;192;3;95;97;8400;;4112;4112;1;12995;25.94;26.54;27,7;BCS1388054;1;5
009848;18.04.2021;08:33:29;Stop          ;03.12.2018;FEY;;LION;49;14500;7200;192;3;95;97;8400;;4112;4112;1;12993;25.94;26.54;27,7;BCS1388054;1;5
009848;04.08.2021;07:25:01;Normalcharge  ;03.12.2018;FEY;;LION;49;14500;7200;192;3;93;96;8400;;4083;4084;1;12989;30.34;30.84;31,5;BCS1388054;1;5
009848;04.08.2021;07:25:57;Stop          ;03.12.2018;FEY;;LION;49;14500;7200;192;3;93;96;8400;;4083;4084;1;12779;30.34;31.04;31,9;BCS1388054;1;5
009848;22.08.2021;11:08:08;Normalcharge  ;03.12.2018;FEY;;LION;49;14500;7200;192;4;49;50;8400;3000;3652;3653;1;12995;22.34;29.74;32,1;BCS1388054;5;7
009848;22.08.2021;11:08:41;Stop          ;03.12.2018;FEY;;LION;49;14500;7200;128;4;49;50;8400;3000;3685;3668;1;12854;22.44;31.04;32,5;BCS1388054;5;7
009848;25.08.2021;08:13:04;Normalcharge  ;03.12.2018;FEY;;LION;49;14500;7200;192;4;49;50;8400;3000;3655;3656;1;13014;30.14;31.34;32,4;BCS1388054;7;3
009848;25.08.2021;08:13:16;Stop          ;03.12.2018;FEY;;LION;49;14500;7200;192;4;49;50;8400;3000;3655;3656;1;13004;30.14;31.54;32,5;BCS1388054;7;3
009848;25.08.2021;08:14:41;Charge to 60% ;03.12.2018;FEY;;LION;49;14500;7200;192;4;49;50;8400;3000;3655;3656;1;13014;30.14;31.74;33,0;BCS1388054;7;3
009848;25.08.2021;08:37:46;Stop          ;03.12.2018;FEY;;LION;49;14500;7200;128;4;53;55;8400;3000;3785;3738;1;12757;31.74;38.74;36,1;BCS1388054;7;3
009848;25.08.2021;08:38:03;Charge to 60% ;03.12.2018;FEY;;LION;49;14500;7200;128;4;53;55;8400;3000;3705;3709;1;13012;31.84;37.94;36,1;BCS1388054;7;3
009848;25.08.2021;13:26:35;Stop          ;03.12.2018;FEY;;LION;49;14500;7200;192;4;58;60;8400;3000;3739;3741;1;13013;32.44;34.14;36,4;BCS1388054;7;3
009848;01.11.2021;09:51:55;Normalcharge  ;03.12.2018;FEY;;LION;49;14500;7200;192;4;55;57;8400;3000;3710;3712;1;12996;25.54;25.64;26,3;BCS1388054;6;7
009848;01.11.2021;09:53:45;Stop          ;03.12.2018;FEY;;LION;49;14500;7200;128;4;55;57;8400;3000;3801;3757;1;12622;25.64;29.64;27,3;BCS1388054;6;7
009848;01.11.2021;10:02:24;Normalcharge  ;03.12.2018;FEY;;LION;49;14500;7200;192;4;55;57;8400;3000;3715;3716;1;12990;25.74;27.94;29,5;BCS1388054;6;7
009848;01.11.2021;10:03:07;Stop          ;03.12.2018;FEY;;LION;49;14500;7200;128;4;55;57;8400;3000;3799;3753;1;12621;25.84;29.54;29,3;BCS1388054;6;7
009848;01.11.2021;10:27:30;Normalcharge  ;03.12.2018;FEY;;LION;49;14500;7200;192;4;55;57;8400;3000;3715;3717;1;12993;26.04;26.44;27,8;BCS1388054;6;7
009848;01.11.2021;10:29:18;Stop          ;03.12.2018;FEY;;LION;49;14500;7200;128;4;56;57;8400;3000;3805;3762;1;12624;26.14;30.44;28,6;BCS1388054;6;7
009848;01.11.2021;14:25:59;Stop          ;03.12.2018;FEY;;LION;49;14500;7200;192;4;58;60;8400;3000;3746;3748;1;12989;28.24;29.84;32,6;BCS1388054;6;7
009848;07.02.2022;08:50:52;Normalcharge  ;03.12.2018;FEY;;LION;49;14500;7200;192;4;54;56;8400;3000;3707;3709;1;13020;21.84;22.34;25,0;BCS1388054;5;18
009848;07.02.2022;13:22:36;Stop          ;03.12.2018;FEY;;LION;49;14500;7200;224;4;97;100;8400;;4157;4159;1;13014;25.54;26.94;28,5;BCS1388054;5;18