Folder: Battery_sort_V2/reader/Batterieverzeichnis (part 10)

File: 009752.txt
Serialnumber ; Date ; Time ; Action ; Date of Manufacture ; Manufacturer ; Battery Name ; Device-Chemistry ; Specification-Info ; Design-Capacity [mAh] ; Design-Voltage [mV] ; Battery Status ; Cycle Count ; SOC [%] ; Relativ SOC[%] ; Desired Voltage [mV]; Desired Current [mA]; Cell Voltage 1 [mV] ; Cell Voltage 2 [mV] ; Max_Error [%] ; Busvoltage[mV] ; Battery Temperature [°C] ; Charger Temperature [°C] ; Batterysystem ; Case ; PLace
009752;07.12.2020;04:14:36;Cycle         ;04.12.2018;FEY;;LION;49;14500;7200;192;2;94;97;8400;;4125;4125;1;12996;25.54;28.44;30,3;BCS1388054;6;14
009752;08.12.2020;16:20:13;Stop          ;04.12.2018;FEY;;LION;49;14500;7200;192;2;94;97;8400;;4124;4124;1;12997;27.74;30.14;31,9;BCS1388054;6;14
009752;07.02.2021;08:46:59;Normalcharge  ;04.12.2018;FEY;;LION;49;14500;7200;192;2;90;93;8400;3000;4088;4087;1;13011;23.44;25.44;29,2;BCS1388054;4;4
009752;07.02.2021;11:52:20;Stop          ;04.12.2018;FEY;;LION;49;14500;7200;224;2;97;100;8400;;4151;4151;1;13011;25.74;26.44;29,7;BCS1388054;4;4
009752;03.03.2021;08:17:21;Normalcharge  ;04.12.2018;FEY;;LION;49;14500;7200;192;2;89;94;8400;3000;4081;4081;1;13011;23.04;22.54;23,5;BCS1388054;3;2
009752;04.03.2021;07:53:39;Stop           ;04.12.2018;FEY;;LION;49;14500;7200;224;2;95;100;8400;;4148;4148;1;13005;26.34;27.94;31,5;BCS1388054;3;2
009752;04.04.2021;11:50:02;Normalcharge  ;04.12.2018;FEY;;LION;49;14500;7200;192;2;58;61;8400;3000;3759;3759;1;13002;24.84;26.04;27,7;BCS1388054;6;14
009752;04.04.2021;11:51:24;Stop          ;04.12.2018;FEY;;LION;49;14500;7200;128;2;58;61;8400;3000;3852;3804;1;12664;24.84;29.64;28,5;BCS1388054;6;14
009752;05.04.2021;09:37:37;Charge to 60% ;04.12.2018;FEY;;LION;49;14500;7200;192;2;58;61;8400;3000;3763;3763;1;13008;24.94;25.64;26,0;BCS1388054;1;7
009752;05.04.2021;10:01:53;Stop          ;04.12.2018;FEY;;LION;49;14500;7200;192;2;57;60;8400;3000;3741;3741;1;13004;25.84;28.54;31,2;BCS1388054;1;7
009752;22.08.2021;11:37:30;Normalcharge  ;04.12.2018;FEY;;LION;49;14500;7200;192;2;51;54;8400;3000;3680;3681;1;12999;21.34;28.64;31,9;BCS1388054;3;18
009752;22.08.2021;11:38:19;Stop           ;04.12.2018;FEY;;LION;49;14500;7200;128;2;51;54;8400;3000;3767;3720;1;12550;21.54;30.64;32,1;BCS1388054;3;18
009752;25.08.2021;08:15:15;Ladung auf 60% ;04.12.2018;FEY;;LION;49;14500;7200;192;2;51;54;8400;3000;3683;3684;1;12997;30.34;31.34;33,4;BCS1388054;3;18
009752;25.08.2021;08:40:44;Stop           ;04.12.2018;FEY;;LION;49;14500;7200;128;2;57;60;8400;3000;3837;3789;1;12995;32.54;40.34;36,1;BCS1388054;3;18

File: 009756.txt
Serialnumber ; Date ; Time ; Action ; Date of Manufacture ; Manufacturer ; Battery Name ; Device-Chemistry ; Specification-Info ; Design-Capacity [mAh] ; Design-Voltage [mV] ; Battery Status ; Cycle Count ; SOC [%] ; Relativ SOC[%] ; Desired Voltage [mV]; Desired Current [mA]; Cell Voltage 1 [mV] ; Cell Voltage 2 [mV] ; Max_Error [%] ; Busvoltage[mV] ; Battery Temperature [°C] ; Charger Temperature [°C] ; Batterysystem ; Case ; PLace
009756;07.12.2020;04:14:32;Cycle         ;04.12.2018;FEY;;LION;49;14500;7200;192;4;98;98;8400;;4145;4143;1;13002;25.84;28.44;30,3;BCS1388054;5;3
009756;08.12.2020;16:20:01;Stop          ;04.12.2018;FEY;;LION;49;14500;7200;192;4;98;98;8400;;4143;4141;1;13000;28.04;30.04;31,7;BCS1388054;5;3
009756;07.02.2021;08:46:54;Normalcharge  ;04.12.2018;FEY;;LION;49;14500;7200;192;4;95;95;8400;3000;4100;4099;1;13001;23.74;24.54;29,2;BCS1388054;3;16
009756;07.02.2021;11:52:16;Stop           ;04.12.2018;FEY;;LION;49;14500;7200;224;4;100;100;8400;;4148;4146;1;13001;26.04;26.14;29,7;BCS1388054;3;16
009756;03.03.2021;08:17:35;Normalcharge  ;04.12.2018;FEY;;LION;49;14500;7200;192;4;76;79;8400;3000;3923;3923;1;13017;23.34;24.44;23,6;BCS1388054;5;5
009756;03.03.2021;11:26:36;Stop          ;04.12.2018;FEY;;LION;49;14500;7200;224;4;98;100;8400;;4156;4155;1;13012;28.34;29.74;31,5;BCS1388054;5;5
009756;04.04.2021;11:50:39;Normalcharge  ;04.12.2018;FEY;;LION;49;14500;7200;192;4;54;55;8400;3000;3699;3700;1;12999;25.14;26.04;28,1;BCS1388054;1;18
009756;04.04.2021;11:51:54;Stop          ;04.12.2018;FEY;;LION;49;14500;7200;128;4;54;55;8400;3000;3790;3743;1;12550;25.14;29.24;28,8;BCS1388054;1;18
009756;05.04.2021;09:37:46;Charge to 60% ;04.12.2018;FEY;;LION;49;14500;7200;192;4;54;55;8400;3000;3702;3703;1;13006;25.34;26.64;26,1;BCS1388054;2;2
009756;05.04.2021;10:03:48;Stop          ;04.12.2018;FEY;;LION;49;14500;7200;192;4;58;60;8400;3000;3761;3765;1;13002;27.04;30.24;31,4;BCS1388054;2;2
009756;22.08.2021;11:07:50;Normalcharge  ;04.12.2018;FEY;;LION;49;14500;7200;192;5;43;44;8400;3000;3611;3612;1;12987;22.44;30.24;32,0;BCS1388054;1;4
009756;22.08.2021;11:08:23;Stop          ;04.12.2018;FEY;;LION;49;14500;7200;128;5;43;44;8400;3000;3670;3637;1;12626;22.54;31.24;32,4;BCS1388054;1;4
009756;25.08.2021;08:14:57;Charge to 60% ;04.12.2018;FEY;;LION;49;14500;7200;192;5;42;43;8400;3000;3613;3613;1;12975;30.54;30.84;33,2;BCS1388054;6;16
009756;25.08.2021;09:50:39;Stop          ;04.12.2018;FEY;;LION;49;14500;7200;192;5;58;60;8400;3000;3736;3737;1;12975;34.54;33.74;36,4;BCS1388054;6;16
009756;01.11.2021;09:52:11;Normalcharge  ;04.12.2018;FEY;;LION;49;14500;7200;192;5;50;52;8400;3000;3664;3665;1;13016;24.54;24.54;26,4;BCS1388054;3;14
009756;01.11.2021;09:53:27;Stop           ;04.12.2018;FEY;;LION;49;14500;7200;128;5;51;52;8400;3000;3755;3707;1;12610;24.54;27.84;27,1;BCS1388054;3;14
009756;01.11.2021;10:02:09;Normalcharge  ;04.12.2018;FEY;;LION;49;14500;7200;192;5;51;52;8400;3000;3666;3668;1;13011;24.84;26.94;29,5;BCS1388054;3;14
009756;01.11.2021;10:03:20;Stop           ;04.12.2018;FEY;;LION;49;14500;7200;128;5;51;52;8400;3000;3757;3707;1;12610;24.94;29.64;29,5;BCS1388054;3;14
009756;01.11.2021;10:18:16;Normalcharge  ;04.12.2018;FEY;;LION;49;14500;7200;192;5;51;52;8400;3000;3668;3669;1;13013;25.44;26.14;28,2;BCS1388054;3;14
009756;01.11.2021;10:18:56;Stop           ;04.12.2018;FEY;;LION;49;14500;7200;128;5;51;52;8400;3000;3747;3703;1;12622;25.44;27.84;28,2;BCS1388054;3;14
009756;01.11.2021;10:27:50;Normalcharge  ;04.12.2018;FEY;;LION;49;14500;7200;192;5;51;52;8400;3000;3669;3670;1;13013;25.64;26.44;27,8;BCS1388054;3;14
009756;01.11.2021;10:29:05;Stop           ;04.12.2018;FEY;;LION;49;14500;7200;128;5;51;52;8400;3000;3758;3711;1;12579;25.64;29.64;28,5;BCS1388054;3;14

File: 009758.txt
Serialnumber ; Date ; Time ; Action ; Date of Manufacture ; Manufacturer ; Battery Name ; Device-Chemistry ; Specification-Info ; Design-Capacity [mAh] ; Design-Voltage [mV] ; Battery Status ; Cycle Count ; SOC [%] ; Relativ SOC[%] ; Desired Voltage [mV]; Desired Current [mA]; Cell Voltage 1 [mV] ; Cell Voltage 2 [mV] ; Max_Error [%] ; Busvoltage[mV] ; Battery Temperature [°C] ; Charger Temperature [°C] ; Batterysystem ; Case ; PLace
009758;07.02.2021;08:47:00;Normalcharge  ;04.12.2018;FEY;;LION;49;14500;7200;192;3;90;92;8400;3000;4063;4063;1;13007;23.74;25.04;29,2;BCS1388054;4;12
009758;07.02.2021;11:52:20;Stop          ;04.12.2018;FEY;;LION;49;14500;7200;224;3;98;100;8400;;4150;4150;1;13008;25.74;25.74;29,7;BCS1388054;4;12
009758;03.03.2021;08:17:46;Normalcharge  ;04.12.2018;FEY;;LION;49;14500;7200;2768;5;;;8400;3000;3046;3070;1;13027;23.14;23.64;23,6;BCS1388054;7;17
009758;03.03.2021;10:54:05;Stop          ;04.12.2018;FEY;;LION;49;14500;7200;128;5;30;32;8400;3000;3675;3625;1;12689;30.24;36.44;31,4;BCS1388054;7;17
009758;16.03.2021;11:40:53;Normalcharge  ;04.12.2018;FEY;;LION;49;14500;7200;192;5;35;36;8400;3000;3575;3576;1;12999;23.94;24.24;25,1;BCS1388054;1;4
009758;16.03.2021;11:41:01;Stop          ;04.12.2018;FEY;;LION;49;14500;7200;192;5;35;36;8400;3000;3575;3575;1;12999;23.94;24.24;25,1;BCS1388054;1;4
009758;30.03.2021;10:23:45;Normalcharge  ;04.12.2018;FEY;;LION;49;14500;7200;192;5;35;36;8400;3000;3572;3573;1;12997;22.94;22.94;23,8;BCS1388054;1;4
009758;30.03.2021;10:24:57;Stop          ;04.12.2018;FEY;;LION;49;14500;7200;128;5;35;36;8400;3000;3661;3613;1;12970;22.94;25.94;24,4;BCS1388054;1;4
009758;08.04.2021;07:57:52;Normalcharge  ;04.12.2018;FEY;;LION;49;14500;7200;192;5;30;31;8400;3000;3542;3543;1;12992;25.24;26.14;26,3;BCS1388054;1;12
009758;08.04.2021;07:59:50;Stop          ;04.12.2018;FEY;;LION;49;14500;7200;128;5;30;31;8400;3000;3634;3587;1;12924;25.34;28.54;26,8;BCS1388054;1;12
009758;08.04.2021;08:09:05;Charge to 60% ;04.12.2018;FEY;;LION;49;14500;7200;192;5;30;31;8400;3000;3546;3548;1;12990;25.34;26.64;27,4;BCS1388054;1;12
009758;08.04.2021;10:32:41;Stop          ;04.12.2018;FEY;;LION;49;14500;7200;192;5;58;60;8400;3000;3733;3736;1;12961;27.04;27.14;28,8;BCS1388054;1;12
009758;08.04.2021;10:34:35;Normalcharge  ;04.12.2018;FEY;;LION;49;14500;7200;192;5;58;60;8400;3000;3732;3734;1;12986;26.94;27.24;28,1;BCS1388054;1;12
009758;08.04.2021;10:36:49;Stop          ;04.12.2018;FEY;;LION;49;14500;7200;128;5;58;60;8400;3000;3829;3784;1;12865;26.94;29.34;28,9;BCS1388054;1;12
009758;18.04.2021;08:33:24;Normalcharge  ;04.12.2018;FEY;;LION;49;14500;7200;192;5;56;57;8400;3000;3722;3723;1;12993;26.24;27.44;27,7;BCS1388054;1;12
009758;18.04.2021;08:33:29;Stop          ;04.12.2018;FEY;;LION;49;14500;7200;192;5;56;57;8400;3000;3722;3723;1;12990;26.24;27.44;27,7;BCS1388054;1;12
009758;04.08.2021;07:25:01;Normalcharge  ;04.12.2018;FEY;;LION;49;14500;7200;192;5;54;55;8400;3000;3689;3690;1;12986;30.54;31.64;31,5;BCS1388054;1;12
009758;04.08.2021;07:25:57;Stop          ;04.12.2018;FEY;;LION;49;14500;7200;128;5;54;56;8400;3000;3773;3724;1;12759;30.54;33.04;31,9;BCS1388054;1;12
009758;25.08.2021;08:15:24;Charge to 60% ;04.12.2018;FEY;;LION;49;14500;7200;192;5;52;54;8400;3000;3685;3686;1;12996;30.34;33.14;33,5;BCS1388054;1;3
009758;25.08.2021;09:25:51;Stop          ;04.12.2018;FEY;;LION;49;14500;7200;192;5;58;60;8400;3000;3746;3749;1;12994;32.24;35.14;36,6;BCS1388054;1;3
009758;01.11.2021;09:51:48;Normalcharge  ;04.12.2018;FEY;;LION;49;14500;7200;192;5;55;57;8400;3000;3712;3713;1;13027;25.94;25.84;26,3;BCS1388054;7;18
009758;01.11.2021;09:53:51;Stop          ;04.12.2018;FEY;;LION;49;14500;7200;128;5;55;57;8400;3000;3806;3760;1;12661;26.04;30.14;27,4;BCS1388054;7;18
009758;01.11.2021;10:02:29;Normalcharge  ;04.12.2018;FEY;;LION;49;14500;7200;192;5;55;57;8400;3000;3717;3718;1;13023;26.24;27.34;29,5;BCS1388054;7;18
009758;01.11.2021;10:03:04;Stop          ;04.12.2018;FEY;;LION;49;14500;7200;128;5;55;57;8400;3000;3776;3745;1;12673;26.24;28.74;29,3;BCS1388054;7;18
009758;01.11.2021;10:27:23;Normalcharge  ;04.12.2018;FEY;;LION;49;14500;7200;192;5;55;57;8400;3000;3717;3719;1;13026;26.34;26.64;27,7;BCS1388054;7;18
009758;01.11.2021;10:29:22;Stop          ;04.12.2018;FEY;;LION;49;14500;7200;128;5;56;57;8400;3000;3812;3767;1;12660;26.44;30.84;28,6;BCS1388054;7;18

File: 009765.txt
Serialnumber ; Date ; Time ; Action ; Date of Manufacture ; Manufacturer ; Battery Name ; Device-Chemistry ; Specification-Info ; Design-Capacity [mAh] ; Design-Voltage [mV] ; Battery Status ; Cycle Count ; SOC [%] ; Relativ SOC[%] ; Desired Voltage [mV]; Desired Current [mA]; Cell Voltage 1 [mV] ; Cell Voltage 2 [mV] ; Max_Error [%] ; Busvoltage[mV] ; Battery Temperature [°C] ; Charger Temperature [°C] ; Batterysystem ; Case ; PLace
009765;07.12.2020;04:14:32;Cycle         ;04.12.2018;FEY;;LION;49;14500;7200;16576;3;97;98;;;4133;4132;1;13011;25.84;27.14;30,3;BCS1388054;5;17
009765;08.12.2020;16:20:01;Stop          ;04.12.2018;FEY;;LION;49;14500;7200;16576;3;97;98;;;4131;4130;1;13011;27.94;28.74;31,7;BCS1388054;5;17
009765;07.02.2021;08:46:54;Normalcharge  ;04.12.2018;FEY;;LION;49;14500;7200;16576;3;94;95;;;4095;4094;1;13002;23.84;25.04;29,2;BCS1388054;3;12
009765;07.02.2021;11:52:16;Stop           ;04.12.2018;FEY;;LION;49;14500;7200;16576;3;94;95;;;4095;4094;1;13001;26.04;26.14;29,7;BCS1388054;3;12
009765;03.03.2021;08:17:40;Normalcharge  ;04.12.2018;FEY;;LION;49;14500;7200;192;3;71;72;8400;3000;3873;3872;1;13005;23.34;22.74;23,6;BCS1388054;6;5
009765;03.03.2021;11:56:52;Stop          ;04.12.2018;FEY;;LION;49;14500;7200;224;3;99;100;8400;;4158;4157;1;12998;28.04;27.74;31,7;BCS1388054;6;5
009765;06.04.2021;08:38:46;Normalcharge  ;04.12.2018;FEY;;LION;49;14500;7200;224;3;97;99;8400;;4132;4132;1;13018;20.84;25.34;28,1;BCS1388054;2;9
009765;06.04.2021;08:39:36;Stop          ;04.12.2018;FEY;;LION;49;14500;7200;224;3;97;99;8400;;4133;4132;1;13015;20.94;25.54;28,2;BCS1388054;2;9
009765;08.04.2021;07:57:57;Normalcharge  ;04.12.2018;FEY;;LION;49;14500;7200;224;3;97;99;8400;;4132;4132;1;13018;25.44;25.44;26,3;BCS1388054;2;9
009765;08.04.2021;07:59:45;Stop          ;04.12.2018;FEY;;LION;49;14500;7200;224;3;97;99;8400;;4133;4132;1;13015;25.54;26.24;26,8;BCS1388054;2;9
009765;08.04.2021;10:35:00;Normalcharge  ;04.12.2018;FEY;;LION;49;14500;7200;224;3;97;99;8400;;4133;4132;1;13019;25.94;25.94;28,1;BCS1388054;2;9
009765;08.04.2021;10:36:53;Stop          ;04.12.2018;FEY;;LION;49;14500;7200;224;3;97;99;8400;;4132;4132;1;13014;25.94;26.74;28,9;BCS1388054;2;9
009765;18.04.2021;08:33:36;Normalcharge  ;04.12.2018;FEY;;LION;49;14500;7200;224;3;97;99;8400;;4129;4128;1;13015;26.44;26.84;27,7;BCS1388054;2;9
009765;18.04.2021;08:33:44;Stop          ;04.12.2018;FEY;;LION;49;14500;7200;224;3;97;99;8400;;4129;4128;1;13015;26.44;26.94;27,8;BCS1388054;2;9
009765;04.08.2021;07:24:55;Normalcharge  ;04.12.2018;FEY;;LION;49;14500;7200;192;3;94;96;8400;;4096;4095;1;13012;30.74;31.24;31,5;BCS1388054;2;9
009765;04.08.2021;07:25:47;Stop          ;04.12.2018;FEY;;LION;49;14500;7200;192;3;94;96;8400;;4096;4095;1;13010;30.74;31.54;31,9;BCS1388054;2;9
009765;22.08.2021;11:08:05;Normalcharge  ;04.12.2018;FEY;;LION;49;14500;7200;192;3;92;94;8400;3000;4082;4081;1;12999;22.74;30.04;32,1;BCS1388054;4;7
009765;22.08.2021;11:08:37;Stop          ;04.12.2018;FEY;;LION;49;14500;7200;128;3;92;94;8400;3000;4124;4107;1;12696;22.84;31.04;32,5;BCS1388054;4;7
009765;12.10.2021;12:15:20;Normalcharge  ;04.12.2018;FEY;;LION;49;14500;7200;192;3;90;92;8400;3000;4057;4056;1;12992;24.84;26.34;27,9;BCS1388054;1;2
009765;12.10.2021;12:15:34;Stop          ;04.12.2018;FEY;;LION;49;14500;7200;192;3;90;92;8400;3000;4057;4056;1;12977;24.94;26.74;27,9;BCS1388054;1;2
009765;14.10.2021;12:40:07;Normalcharge  ;04.12.2018;FEY;;LION;49;14500;7200;192;3;88;90;8400;3000;4030;4029;1;13004;25.24;26.94;27,9;BCS1388054;4;7
009765;14.10.2021;12:41:43;Stop          ;04.12.2018;FEY;;LION;49;14500;7200;128;3;88;90;8400;3000;4111;4075;1;12672;25.24;30.14;28,4;BCS1388054;4;7
009765;14.03.2022;10:34:06;Normalcharge  ;04.12.2018;FEY;;LION;49;14500;7200;192;3;80;82;8400;3000;3938;3938;1;13007;24.34;24.84;25,4;BCS1388054;3;5
009765;14.03.2022;10:38:27;Stop           ;04.12.2018;FEY;;LION;49;14500;7200;128;3;81;83;8400;3000;4050;4000;1;12633;24.64;28.84;28,1;BCS1388054;3;5

File: 009773.txt
Serialnumber ; Date ; Time ; Action ; Date of Manufacture ; Manufacturer ; Battery Name ; Device-Chemistry ; Specification-Info ; Design-Capacity [mAh] ; Design-Voltage [mV] ; Battery Status ; Cycle Count ; SOC [%] ; Relativ SOC[%] ; Desired Voltage [mV]; Desired Current [mA]; Cell Voltage 1 [mV] ; Cell Voltage 2 [mV] ; Max_Error [%] ; Busvoltage[mV] ; Battery Temperature [°C] ; Charger Temperature [°C] ; Batterysystem ; Case ; PLace
009773;12.01.2021;04:16:00;Charge to 90% ;04.12.2018;FEY;;LION;49;14500;7200;16576;1;88;97;;;4134;4134;1;13005;23.04;21.64;23,0;BCS1388054;1;10
009773;12.01.2021;04:16:03;Stop          ;04.12.2018;FEY;;LION;49;14500;7200;16576;1;88;97;;;4134;4134;1;13006;23.04;22.34;23,0;BCS1388054;1;10
009773;12.01.2021;04:17:15;Charge to 90% ;04.12.2018;FEY;;LION;49;14500;7200;16576;1;88;97;;;4135;4134;1;13005;23.04;22.84;23,5;BCS1388054;1;10
009773;12.01.2021;04:55:18;Stop          ;04.12.2018;FEY;;LION;49;14500;7200;192;2;83;90;8400;3000;4068;4067;1;12998;26.54;28.64;31,7;BCS1388054;1;10
009773;12.01.2021;05:21:33;Cycle         ;04.12.2018;FEY;;LION;49;14500;7200;192;2;83;90;8400;3000;4073;4072;1;12999;26.64;26.74;30,6;BCS1388054;1;10
009773;13.01.2021;08:18:34;Stop          ;04.12.2018;FEY;;LION;49;14500;7200;224;3;95;100;8400;;4155;4155;1;12998;26.54;26.64;30,7;BCS1388054;1;10
009773;21.02.2021;13:45:29;Normalcharge  ;04.12.2018;FEY;;LION;49;14500;7200;192;3;51;54;8400;3000;3686;3687;1;12995;22.74;23.94;27,8;BCS1388054;6;13
009773;06.04.2021;08:38:46;Normalcharge  ;04.12.2018;FEY;;LION;49;14500;7200;224;3;94;99;8400;;4128;4127;1;13012;20.34;25.84;28,1;BCS1388054;2;3
009773;06.04.2021;08:39:36;Stop          ;04.12.2018;FEY;;LION;49;14500;7200;224;3;94;99;8400;;4128;4128;1;13009;20.44;26.34;28,2;BCS1388054;2;3
009773;08.04.2021;07:57:57;Normalcharge  ;04.12.2018;FEY;;LION;49;14500;7200;224;3;94;99;8400;;4127;4127;1;13011;25.24;25.84;26,3;BCS1388054;2;3
009773;08.04.2021;07:59:45;Stop          ;04.12.2018;FEY;;LION;49;14500;7200;224;3;94;99;8400;;4127;4127;1;13009;25.24;27.14;26,8;BCS1388054;2;3
009773;08.04.2021;10:35:00;Normalcharge  ;04.12.2018;FEY;;LION;49;14500;7200;224;3;94;99;8400;;4127;4127;1;13011;25.64;26.34;28,1;BCS1388054;2;3
009773;08.04.2021;10:36:53;Stop          ;04.12.2018;FEY;;LION;49;14500;7200;224;3;94;99;8400;;4127;4127;1;13008;25.64;27.64;28,9;BCS1388054;2;3
009773;18.04.2021;08:33:36;Normalcharge  ;04.12.2018;FEY;;LION;49;14500;7200;224;3;94;99;8400;;4123;4123;1;13010;26.14;27.54;27,7;BCS1388054;2;3
009773;18.04.2021;08:33:44;Stop          ;04.12.2018;FEY;;LION;49;14500;7200;224;3;94;99;8400;;4124;4123;1;13010;26.14;27.54;27,8;BCS1388054;2;3
009773;04.08.2021;07:24:55;Normalcharge  ;04.12.2018;FEY;;LION;49;14500;7200;192;3;92;96;8400;;4092;4091;1;13001;30.44;31.84;31,5;BCS1388054;2;3
009773;04.08.2021;07:25:47;Stop          ;04.12.2018;FEY;;LION;49;14500;7200;192;3;92;96;8400;;4091;4091;1;13000;30.44;32.44;31,9;BCS1388054;2;3
009773;22.08.2021;11:08:04;Normalcharge  ;04.12.2018;FEY;;LION;49;14500;7200;2768;5;;;8400;3000;3107;3109;1;13003;22.84;30.14;32,1;BCS1388054;4;1
009773;22.08.2021;11:08:37;Stop          ;04.12.2018;FEY;;LION;49;14500;7200;144;5;;;8400;3000;3148;3139;1;12719;22.94;30.94;32,5;BCS1388054;4;1

File: 009775.txt
Serialnumber ; Date ; Time ; Action ; Date of Manufacture ; Manufacturer ; Battery Name ; Device-Chemistry ; Specification-Info ; Design-Capacity [mAh] ; Design-Voltage [mV] ; Battery Status ; Cycle Count ; SOC [%] ; Relativ SOC[%] ; Desired Voltage [mV]; Desired Current [mA]; Cell Voltage 1 [mV] ; Cell Voltage 2 [mV] ; Max_Error [%] ; Busvoltage[mV] ; Battery Temperature [°C] ; Charger Temperature [°C] ; Batterysystem ; Case ; PLace
009775;07.12.2020;04:14:17;Cycle         ;04.12.2018;FEY;;LION;49;14500;7200;224;2;98;100;8400;;4142;4144;1;12992;25.44;27.84;30,3;BCS1388054;1;1
009775;08.12.2020;16:19:38;Stop          ;04.12.2018;FEY;;LION;49;14500;7200;224;4;97;100;8400;;4151;4152;1;12991;27.24;29.14;31,9;BCS1388054;1;1
009775;03.03.2021;08:17:08;Normalcharge  ;04.12.2018;FEY;;LION;49;14500;7200;192;4;95;98;8400;;4116;4116;1;13001;22.84;24.04;23,5;BCS1388054;1;8
009775;04.03.2021;07:53:51;Stop          ;04.12.2018;FEY;;LION;49;14500;7200;192;4;95;98;8400;;4116;4116;1;12996;25.94;28.64;31,6;BCS1388054;1;8
009775;04.04.2021;11:50:33;Normalcharge  ;04.12.2018;FEY;;LION;49;14500;7200;192;4;50;51;8400;3000;3661;3661;1;12989;24.74;26.94;27,9;BCS1388054;2;7
009775;04.04.2021;11:51:48;Stop          ;04.12.2018;FEY;;LION;49;14500;7200;128;4;50;51;8400;3000;3749;3700;1;12601;24.84;29.74;28,6;BCS1388054;2;7
009775;05.04.2021;09:38:17;Charge to 60% ;04.12.2018;FEY;;LION;49;14500;7200;192;4;50;51;8400;3000;3662;3663;1;12999;24.84;26.54;26,4;BCS1388054;5;7
009775;05.04.2021;10:34:50;Charge to 60% ;04.12.2018;FEY;;LION;49;14500;7200;192;4;58;60;8400;3000;3740;3744;1;12914;27.94;30.44;32,4;BCS1388054;5;7
009775;05.04.2021;13:16:09;Stop          ;04.12.2018;FEY;;LION;49;14500;7200;192;4;58;60;8400;3000;3738;3741;1;12995;27.64;30.24;32,2;BCS1388054;5;7
009775;22.08.2021;11:37:30;Normalcharge  ;04.12.2018;FEY;;LION;49;14500;7200;192;4;53;55;8400;3000;3692;3693;1;12999;21.14;28.64;31,9;BCS1388054;3;10
009775;22.08.2021;11:38:19;Stop           ;04.12.2018;FEY;;LION;49;14500;7200;128;4;53;55;8400;3000;3779;3733;1;12557;21.24;30.84;32,1;BCS1388054;3;10
009775;25.08.2021;08:15:15;Ladung auf 60% ;04.12.2018;FEY;;LION;49;14500;7200;192;4;53;55;8400;3000;3695;3696;1;12995;30.24;31.84;33,4;BCS1388054;3;10
009775;25.08.2021;08:40:44;Stop           ;04.12.2018;FEY;;LION;49;14500;7200;192;4;58;60;8400;3000;3749;3753;1;12997;32.04;34.54;36,1;BCS1388054;3;10
009775;01.11.2021;09:52:00;Normalcharge  ;04.12.2018;FEY;;LION;49;14500;7200;192;4;55;57;8400;3000;3714;3715;1;13007;25.54;25.14;26,3;BCS1388054;5;1
009775;01.11.2021;09:53:40;Stop          ;04.12.2018;FEY;;LION;49;14500;7200;128;4;55;57;8400;3000;3804;3760;1;12613;25.54;29.14;27,3;BCS1388054;5;1
009775;01.11.2021;10:02:19;Normalcharge  ;04.12.2018;FEY;;LION;49;14500;7200;192;4;55;57;8400;3000;3718;3720;1;13002;25.74;27.64;29,5;BCS1388054;5;1
009775;01.11.2021;10:03:11;Stop          ;04.12.2018;FEY;;LION;49;14500;7200;128;4;55;57;8400;3000;3802;3758;1;12610;25.74;29.44;29,3;BCS1388054;5;1
009775;01.11.2021;10:27:35;Normalcharge  ;04.12.2018;FEY;;LION;49;14500;7200;192;4;55;57;8400;3000;3720;3721;1;13004;26.04;25.94;27,8;BCS1388054;5;1
009775;01.11.2021;10:29:14;Stop          ;04.12.2018;FEY;;LION;49;14500;7200;128;4;56;58;8400;3000;3811;3764;1;12609;26.04;29.94;28,6;BCS1388054;5;1
009775;01.11.2021;10:32:33;Charge to 60% ;04.12.2018;FEY;;LION;49;14500;7200;192;4;56;58;8400;3000;3724;3725;1;13002;26.14;27.64;29,9;BCS1388054;5;1
009775;01.11.2021;11:11:47;Stop          ;04.12.2018;FEY;;LION;49;14500;7200;192;4;58;60;8400;3000;3750;3754;1;13002;27.44;29.34;32,5;BCS1388054;5;1
009775;07.02.2022;08:50:57;Normalcharge  ;04.12.2018;FEY;;LION;49;14500;7200;192;4;55;57;8400;3000;3711;3712;1;13009;21.94;23.14;25,1;BCS1388054;4;7
009775;07.02.2022;13:19:09;Stop          ;04.12.2018;FEY;;LION;49;14500;7200;224;4;97;100;8400;;4160;4159;1;13004;27.24;28.64;29,7;BCS1388054;4;7
009775;14.03.2022;12:14:36;Normalcharge  ;04.12.2018;FEY;;LION;49;14500;7200;224;4;96;99;8400;;4131;4129;1;13017;24.24;24.84;27,7;BCS1388054;3;14
009775;14.03.2022;12:18:51;Stop           ;04.12.2018;FEY;;LION;49;14500;7200;224;4;96;99;8400;;4131;4129;1;12980;24.34;25.74;29,5;BCS1388054;3;14
009775;29.03.2022;08:21:01;Normalcharge  ;04.12.2018;FEY;;LION;49;14500;7200;192;5;70;72;8400;3000;3877;3876;1;13016;24.54;25.14;25,8;BCS1388054;3;3
009775;29.03.2022;08:21:40;Stop           ;04.12.2018;FEY;;LION;49;14500;7200;128;5;70;72;8400;3000;3929;3900;1;12684;24.54;26.64;26,0;BCS1388054;3;3
009775;29.03.2022;08:22:08;Normalcharge  ;04.12.2018;FEY;;LION;49;14500;7200;128;5;70;72;8400;3000;3878;3880;1;13015;24.54;26.54;26,3;BCS1388054;3;3
009775;29.03.2022;08:22:36;Stop           ;04.12.2018;FEY;;LION;49;14500;7200;128;5;70;72;8400;3000;3918;3894;1;12755;24.64;27.24;26,4;BCS1388054;3;3

File: 009777.txt
Serialnumber ; Date ; Time ; Action ; Date of Manufacture ; Manufacturer ; Battery Name ; Device-Chemistry ; Specification-Info ; Design-Capacity [mAh] ; Design-Voltage [mV] ; Battery Status ; Cycle Count ; SOC [%] ; Relativ SOC[%] ; Desired Voltage [mV]; Desired Current [mA]; Cell Voltage 1 [mV] ; Cell Voltage 2 [mV] ; Max_Error [%] ; Busvoltage[mV] ; Battery Temperature [°C] ; Charger Temperature [°C] ; Batterysystem ; Case ; PLace
009777;07.12.2020;04:14:40;Cycle         ;04.12.2018;FEY;;LION;49;14500;7200;192;2;96;97;8400;;4126;4125;1;13025;25.54;27.94;30,3;BCS1388054;7;2
009777;08.12.2020;16:20:20;Stop          ;04.12.2018;FEY;;LION;49;14500;7200;192;2;96;97;8400;;4125;4123;1;13025;27.54;29.34;31,9;BCS1388054;7;2
009777;07.02.2021;08:47:00;Normalcharge  ;04.12.2018;FEY;;LION;49;14500;7200;192;2;89;91;8400;3000;4050;4048;1;13004;23.44;25.24;29,2;BCS1388054;4;17
009777;07.02.2021;11:52:20;Stop          ;04.12.2018;FEY;;LION;49;14500;7200;224;2;99;100;8400;;4152;4150;1;13003;25.74;26.74;29,7;BCS1388054;4;17
009777;03.03.2021;08:17:29;Normalcharge  ;04.12.2018;FEY;;LION;49;14500;7200;192;3;87;90;8400;3000;4038;4036;1;13008;23.14;23.44;23,5;BCS1388054;4;6
009777;03.03.2021;10:32:46;Stop          ;04.12.2018;FEY;;LION;49;14500;7200;224;3;97;100;8400;;4155;4153;1;13002;27.94;28.44;32,0;BCS1388054;4;6
009777;04.04.2021;11:50:10;Normalcharge  ;04.12.2018;FEY;;LION;49;14500;7200;2768;4;;;8400;3000;3084;3094;1;13018;24.84;25.84;27,8;BCS1388054;5;8
009777;04.04.2021;11:51:30;Stop          ;04.12.2018;FEY;;LION;49;14500;7200;144;4;;;8400;3000;3146;3135;1;12694;24.94;27.74;28,5;BCS1388054;5;8
009777;05.04.2021;09:38:25;Charge to 60% ;04.12.2018;FEY;;LION;49;14500;7200;720;4;;;8400;3000;3093;3102;1;13004;24.94;25.14;26,6;BCS1388054;6;4
009777;05.04.2021;13:29:53;Stop          ;04.12.2018;FEY;;LION;49;14500;7200;128;4;48;50;8400;3000;3774;3724;1;12921;29.54;31.84;31,9;BCS1388054;6;4
009777;06.04.2021;07:40:17;Charge to 60% ;04.12.2018;FEY;;LION;49;14500;7200;192;4;50;52;8400;3000;3672;3671;1;13012;24.84;24.34;25,1;BCS1388054;6;4
009777;06.04.2021;08:24:55;Stop          ;04.12.2018;FEY;;LION;49;14500;7200;192;4;57;60;8400;3000;3739;3739;1;13008;26.34;26.44;27,8;BCS1388054;6;4
009777;22.08.2021;11:08:18;Normalcharge  ;04.12.2018;FEY;;LION;49;14500;7200;192;4;52;54;8400;3000;3682;3681;1;13023;29.74;30.24;32,2;BCS1388054;7;2
009777;22.08.2021;11:08:50;Stop          ;04.12.2018;FEY;;LION;49;14500;7200;128;4;52;54;8400;3000;3715;3694;1;12856;29.74;31.64;32,6;BCS1388054;7;2