Folder: Battery_sort_V2/reader/Batterieverzeichnis (part 6)

File: 009671.txt
Serialnumber ; Date ; Time ; Action ; Date of Manufacture ; Manufacturer ; Battery Name ; Device-Chemistry ; Specification-Info ; Design-Capacity [mAh] ; Design-Voltage [mV] ; Battery Status ; Cycle Count ; SOC [%] ; Relativ SOC[%] ; Desired Voltage [mV]; Desired Current [mA]; Cell Voltage 1 [mV] ; Cell Voltage 2 [mV] ; Max_Error [%] ; Busvoltage[mV] ; Battery Temperature [°C] ; Charger Temperature [°C] ; Batterysystem ; Case ; PLace
009671;07.12.2020;04:14:40;Cycle         ;04.12.2018;FEY;;LION;49;14500;7200;192;3;96;97;8400;;4135;4135;1;13026;25.74;27.24;30,3;BCS1388054;7;4
009671;08.12.2020;16:20:20;Stop          ;04.12.2018;FEY;;LION;49;14500;7200;192;3;96;97;8400;;4133;4133;1;13027;27.64;28.44;31,9;BCS1388054;7;4
009671;12.01.2021;04:17:33;Charge to 90% ;04.12.2018;FEY;;LION;49;14500;7200;192;3;95;96;8400;;4119;4119;1;13010;23.24;23.24;23,6;BCS1388054;4;8
009671;12.01.2021;04:57:16;Stop          ;04.12.2018;FEY;;LION;49;14500;7200;192;4;89;90;8400;3000;4060;4060;1;13004;26.74;28.94;31,6;BCS1388054;4;8
009671;12.01.2021;05:21:49;Cycle         ;04.12.2018;FEY;;LION;49;14500;7200;192;4;89;90;8400;3000;4064;4063;1;13006;27.14;27.64;30,4;BCS1388054;4;8
009671;13.01.2021;08:19:19;Stop          ;04.12.2018;FEY;;LION;49;14500;7200;224;5;97;100;8400;;4156;4157;1;13006;27.54;27.64;30,7;BCS1388054;4;8
009671;21.02.2021;13:44:56;Normalcharge  ;04.12.2018;FEY;;LION;49;14500;7200;192;5;62;64;8400;3000;3809;3807;1;13017;22.94;23.94;27,7;BCS1388054;5;15
009671;21.02.2021;19:31:36;Stop          ;04.12.2018;FEY;;LION;49;14500;7200;224;5;97;100;8400;;4154;4156;1;13012;27.34;29.44;30,6;BCS1388054;5;15
009671;06.04.2021;08:39:21;Normalcharge  ;04.12.2018;FEY;;LION;49;14500;7200;192;5;90;93;8400;3000;4069;4069;1;13038;21.64;24.24;28,1;BCS1388054;7;14
009671;06.04.2021;08:40:08;Stop          ;04.12.2018;FEY;;LION;49;14500;7200;128;5;90;93;8400;3000;4128;4102;1;12944;21.74;26.14;28,5;BCS1388054;7;14
009671;08.04.2021;07:59:03;Normalcharge  ;04.12.2018;FEY;;LION;49;14500;7200;192;5;90;93;8400;3000;4069;4069;1;13039;25.24;24.64;26,4;BCS1388054;7;14
009671;08.04.2021;07:59:16;Stop          ;04.12.2018;FEY;;LION;49;14500;7200;192;5;90;93;8400;3000;4068;4069;1;13036;25.24;24.84;26,6;BCS1388054;7;14
009671;08.04.2021;10:36:43;Normalcharge  ;04.12.2018;FEY;;LION;49;14500;7200;192;5;90;93;8400;3000;4068;4069;1;13036;25.44;25.64;28,9;BCS1388054;7;14
009671;08.04.2021;10:37:15;Stop          ;04.12.2018;FEY;;LION;49;14500;7200;128;5;90;93;8400;3000;4101;4086;1;12958;25.54;26.74;29,2;BCS1388054;7;14
009671;18.04.2021;08:34:46;Normalcharge  ;04.12.2018;FEY;;LION;49;14500;7200;192;5;90;93;8400;3000;4066;4066;1;13036;26.14;26.34;28,2;BCS1388054;7;14
009671;18.04.2021;08:34:54;Stop          ;04.12.2018;FEY;;LION;49;14500;7200;192;5;90;93;8400;3000;4066;4066;1;13033;26.14;26.44;28,4;BCS1388054;7;14
009671;04.08.2021;07:24:29;Normalcharge  ;04.12.2018;FEY;;LION;49;14500;7200;192;5;89;92;8400;3000;4027;4027;1;13033;30.14;29.74;31,5;BCS1388054;7;14
009671;04.08.2021;07:25:08;Stop          ;04.12.2018;FEY;;LION;49;14500;7200;128;5;89;92;8400;3000;4055;4041;1;12976;30.14;31.04;31,6;BCS1388054;7;14
009671;25.08.2021;08:15:19;Charge to 60% ;04.12.2018;FEY;;LION;49;14500;7200;192;5;89;92;8400;3000;4019;4019;1;12991;30.44;32.84;33,5;BCS1388054;2;10
009671;25.08.2021;10:43:16;Stop          ;04.12.2018;FEY;;LION;49;14500;7200;192;6;58;60;8400;3000;3718;3716;1;12989;34.04;35.54;36,4;BCS1388054;2;10
009671;01.11.2021;09:52:14;Normalcharge  ;04.12.2018;FEY;;LION;49;14500;7200;192;6;52;55;8400;3000;3704;3702;1;13004;26.04;26.64;26,3;BCS1388054;2;3
009671;01.11.2021;09:53:17;Stop          ;04.12.2018;FEY;;LION;49;14500;7200;128;6;52;55;8400;3000;3791;3743;1;12523;26.04;29.64;26,8;BCS1388054;2;3
009671;01.11.2021;10:02:05;Normalcharge  ;04.12.2018;FEY;;LION;49;14500;7200;192;6;52;55;8400;3000;3706;3704;1;12997;26.14;28.94;29,5;BCS1388054;2;3
009671;01.11.2021;10:03:24;Stop          ;04.12.2018;FEY;;LION;49;14500;7200;128;6;53;55;8400;3000;3796;3748;1;12520;26.24;31.64;29,3;BCS1388054;2;3
009671;01.11.2021;10:18:11;Normalcharge  ;04.12.2018;FEY;;LION;49;14500;7200;192;6;53;55;8400;3000;3709;3707;1;12998;26.34;27.84;28,4;BCS1388054;2;3
009671;01.11.2021;10:18:48;Stop          ;04.12.2018;FEY;;LION;49;14500;7200;128;6;53;55;8400;3000;3770;3734;1;12592;26.34;29.34;28,2;BCS1388054;2;3
009671;01.11.2021;10:28:53;Normalcharge  ;04.12.2018;FEY;;LION;49;14500;7200;192;6;53;55;8400;3000;3710;3707;1;12998;26.44;28.34;28,2;BCS1388054;2;3
009671;01.11.2021;10:29:00;Stop          ;04.12.2018;FEY;;LION;49;14500;7200;192;6;53;55;8400;3000;3709;3708;1;12985;26.44;28.44;28,4;BCS1388054;2;3

File: 009673.txt
Serialnumber ; Date ; Time ; Action ; Date of Manufacture ; Manufacturer ; Battery Name ; Device-Chemistry ; Specification-Info ; Design-Capacity [mAh] ; Design-Voltage [mV] ; Battery Status ; Cycle Count ; SOC [%] ; Relativ SOC[%] ; Desired Voltage [mV]; Desired Current [mA]; Cell Voltage 1 [mV] ; Cell Voltage 2 [mV] ; Max_Error [%] ; Busvoltage[mV] ; Battery Temperature [°C] ; Charger Temperature [°C] ; Batterysystem ; Case ; PLace
009673;07.12.2020;04:14:25;Cycle          ;04.12.2018;FEY;;LION;49;14500;7200;192;2;98;98;8400;;4141;4142;1;12993;25.54;28.14;30,3;BCS1388054;3;8
009673;08.12.2020;16:19:50;Stop           ;04.12.2018;FEY;;LION;49;14500;7200;192;2;98;98;8400;;4139;4140;1;12992;27.84;29.84;31,9;BCS1388054;3;8
009673;12.01.2021;04:17:47;Charge to 90% ;04.12.2018;FEY;;LION;49;14500;7200;192;2;96;97;8400;;4124;4126;1;13032;22.94;23.34;23,8;BCS1388054;7;4
009673;12.01.2021;04:57:19;Stop          ;04.12.2018;FEY;;LION;49;14500;7200;192;2;90;90;8400;3000;4061;4061;1;13028;26.44;28.24;31,5;BCS1388054;7;4
009673;12.01.2021;05:22:01;Cycle         ;04.12.2018;FEY;;LION;49;14500;7200;192;2;90;90;8400;3000;4065;4066;1;13028;26.54;27.04;30,4;BCS1388054;7;4
009673;13.01.2021;08:19:29;Stop          ;04.12.2018;FEY;;LION;49;14500;7200;224;4;97;100;8400;;4155;4157;1;13028;26.34;27.14;30,7;BCS1388054;7;4
009673;06.04.2021;08:39:16;Normalcharge  ;04.12.2018;FEY;;LION;49;14500;7200;192;4;95;98;8400;;4114;4116;1;12991;21.24;26.24;28,1;BCS1388054;6;13
009673;06.04.2021;08:40:03;Stop          ;04.12.2018;FEY;;LION;49;14500;7200;192;4;95;98;8400;;4114;4116;1;12970;21.24;26.34;28,5;BCS1388054;6;13
009673;08.04.2021;07:58:44;Normalcharge  ;04.12.2018;FEY;;LION;49;14500;7200;192;4;95;98;8400;;4115;4116;1;12994;25.04;25.54;26,4;BCS1388054;6;13
009673;08.04.2021;07:59:23;Stop          ;04.12.2018;FEY;;LION;49;14500;7200;192;4;95;98;8400;;4114;4116;1;12993;25.04;26.14;26,7;BCS1388054;6;13
009673;08.04.2021;10:36:16;Normalcharge  ;04.12.2018;FEY;;LION;49;14500;7200;192;4;95;98;8400;;4114;4116;1;12992;25.34;26.74;28,6;BCS1388054;6;13
009673;08.04.2021;10:37:11;Stop          ;04.12.2018;FEY;;LION;49;14500;7200;192;4;95;98;8400;;4114;4116;1;12973;25.34;27.14;29,2;BCS1388054;6;13
009673;18.04.2021;08:34:33;Normalcharge  ;04.12.2018;FEY;;LION;49;14500;7200;192;4;95;97;8400;;4112;4113;1;12991;25.94;27.64;28,2;BCS1388054;6;13
009673;18.04.2021;08:34:41;Stop          ;04.12.2018;FEY;;LION;49;14500;7200;192;4;95;97;8400;;4112;4113;1;12990;25.94;27.64;28,2;BCS1388054;6;13
009673;04.08.2021;07:24:35;Normalcharge  ;04.12.2018;FEY;;LION;49;14500;7200;192;4;94;97;8400;;4084;4085;1;12989;29.94;31.24;31,5;BCS1388054;6;13
009673;04.08.2021;07:25:17;Stop          ;04.12.2018;FEY;;LION;49;14500;7200;192;4;94;97;8400;;4084;4085;1;12973;29.94;31.54;31,6;BCS1388054;6;13
009673;22.08.2021;11:08:00;Normalcharge  ;04.12.2018;FEY;;LION;49;14500;7200;192;4;91;94;8400;3000;4079;4080;1;13003;22.64;30.44;32,1;BCS1388054;3;13
009673;22.08.2021;11:08:34;Stop           ;04.12.2018;FEY;;LION;49;14500;7200;128;4;91;94;8400;3000;4143;4116;1;12713;22.74;31.54;32,4;BCS1388054;3;13
009673;12.10.2021;12:59:04;Normalcharge  ;04.12.2018;FEY;;LION;49;14500;7200;192;4;90;93;8400;3000;4064;4065;1;13005;23.24;27.04;28,5;BCS1388054;7;9
009673;12.10.2021;12:59:37;Stop          ;04.12.2018;FEY;;LION;49;14500;7200;128;4;90;93;8400;3000;4076;4073;1;12924;23.24;28.14;28,6;BCS1388054;7;9
009673;14.10.2021;12:40:13;Normalcharge  ;04.12.2018;FEY;;LION;49;14500;7200;192;4;90;93;8400;3000;4064;4065;1;13014;23.24;26.74;27,9;BCS1388054;5;15
009673;14.10.2021;12:41:50;Stop          ;04.12.2018;FEY;;LION;49;14500;7200;128;4;90;93;8400;3000;4133;4108;1;12645;23.34;29.84;28,5;BCS1388054;5;15
009673;13.03.2022;12:10:09;Normalcharge  ;04.12.2018;FEY;;LION;49;14500;7200;192;4;80;82;8400;3000;3946;3947;1;13019;24.04;23.74;25,6;BCS1388054;3;14
009673;13.03.2022;12:10:50;Stop           ;04.12.2018;FEY;;LION;49;14500;7200;128;4;80;82;8400;3000;3970;3959;1;12768;23.94;25.14;25,7;BCS1388054;3;14
009673;14.03.2022;10:33:46;Normalcharge  ;04.12.2018;FEY;;LION;49;14500;7200;192;4;80;82;8400;3000;3946;3947;1;13000;24.04;26.14;25,1;BCS1388054;6;2
009673;14.03.2022;10:38:06;Stop          ;04.12.2018;FEY;;LION;49;14500;7200;128;4;81;83;8400;3000;4061;4012;1;12678;24.24;32.24;28,1;BCS1388054;6;2

File: 009675.txt
Serialnumber ; Date ; Time ; Action ; Date of Manufacture ; Manufacturer ; Battery Name ; Device-Chemistry ; Specification-Info ; Design-Capacity [mAh] ; Design-Voltage [mV] ; Battery Status ; Cycle Count ; SOC [%] ; Relativ SOC[%] ; Desired Voltage [mV]; Desired Current [mA]; Cell Voltage 1 [mV] ; Cell Voltage 2 [mV] ; Max_Error [%] ; Busvoltage[mV] ; Battery Temperature [°C] ; Charger Temperature [°C] ; Batterysystem ; Case ; PLace
009675;12.01.2021;04:17:28;Ladung auf 90% ;03.12.2018;FEY;;LION;49;14500;7200;192;2;97;97;8400;;4129;4128;1;13009;22.44;23.04;23,6;BCS1388054;3;4
009675;12.01.2021;04:57:30;Stop           ;03.12.2018;FEY;;LION;49;14500;7200;192;2;91;90;8400;3000;4062;4062;1;13005;26.34;28.94;31,5;BCS1388054;3;4
009675;12.01.2021;05:21:45;Cycle          ;03.12.2018;FEY;;LION;49;14500;7200;192;2;91;90;8400;3000;4066;4066;1;13005;26.54;27.44;30,4;BCS1388054;3;4
009675;13.01.2021;08:23:25;Stop           ;03.12.2018;FEY;;LION;49;14500;7200;224;4;97;100;8400;;4156;4156;1;13004;26.44;27.44;31,4;BCS1388054;3;4
009675;03.03.2021;08:17:46;Normalcharge  ;03.12.2018;FEY;;LION;49;14500;7200;192;5;26;26;8400;3000;3520;3520;1;13028;22.54;23.04;23,6;BCS1388054;7;11
009675;03.03.2021;10:54:05;Stop          ;03.12.2018;FEY;;LION;49;14500;7200;128;5;58;59;8400;3000;3856;3808;1;12691;29.54;31.84;31,4;BCS1388054;7;11
009675;03.03.2021;10:55:49;Normalcharge  ;03.12.2018;FEY;;LION;49;14500;7200;192;5;58;60;8400;3000;3771;3772;1;13020;29.44;29.84;30,6;BCS1388054;7;11
009675;03.03.2021;17:03:24;Stop          ;03.12.2018;FEY;;LION;49;14500;7200;224;5;98;100;8400;;4153;4151;1;13023;25.54;26.44;31,4;BCS1388054;7;11
009675;04.04.2021;11:50:28;Normalcharge  ;03.12.2018;FEY;;LION;49;14500;7200;2768;6;;;8400;3000;3088;3088;1;13011;24.34;25.44;27,9;BCS1388054;3;17
009675;04.04.2021;11:51:43;Stop           ;03.12.2018;FEY;;LION;49;14500;7200;2768;6;;;8400;3000;3088;3088;1;12800;24.34;27.24;28,6;BCS1388054;3;17
009675;05.04.2021;09:38:25;Charge to 60% ;03.12.2018;FEY;;LION;49;14500;7200;2768;6;;;8400;3000;3094;3094;1;13003;24.44;25.54;26,6;BCS1388054;6;1
009675;05.04.2021;13:29:53;Stop          ;03.12.2018;FEY;;LION;49;14500;7200;128;6;47;49;8400;3000;3769;3721;1;12924;28.94;33.04;31,9;BCS1388054;6;1
009675;06.04.2021;07:40:17;Charge to 60% ;03.12.2018;FEY;;LION;49;14500;7200;192;6;49;51;8400;3000;3669;3669;1;13009;24.24;24.54;25,1;BCS1388054;6;1
009675;06.04.2021;08:24:55;Stop          ;03.12.2018;FEY;;LION;49;14500;7200;192;6;57;60;8400;3000;3774;3774;1;13005;26.34;28.44;27,8;BCS1388054;6;1
009675;08.04.2021;10:36:07;Normalcharge  ;03.12.2018;FEY;;LION;49;14500;7200;192;6;58;61;8400;3000;3752;3753;1;13010;24.54;25.74;28,5;BCS1388054;4;13
009675;08.04.2021;10:37:03;Stop          ;03.12.2018;FEY;;LION;49;14500;7200;128;6;58;61;8400;3000;3840;3793;1;12973;24.54;28.34;29,0;BCS1388054;4;13
009675;18.04.2021;08:34:04;Normalcharge  ;03.12.2018;FEY;;LION;49;14500;7200;192;6;57;59;8400;3000;3741;3741;1;13009;25.54;26.54;27,9;BCS1388054;4;13
009675;18.04.2021;08:34:10;Stop          ;03.12.2018;FEY;;LION;49;14500;7200;192;6;57;59;8400;3000;3741;3741;1;13009;25.54;26.54;28,1;BCS1388054;4;13
009675;04.08.2021;07:24:46;Normalcharge  ;03.12.2018;FEY;;LION;49;14500;7200;192;6;54;56;8400;3000;3705;3705;1;13006;29.64;30.54;31,5;BCS1388054;4;13
009675;04.08.2021;07:25:30;Stop          ;03.12.2018;FEY;;LION;49;14500;7200;128;6;54;56;8400;3000;3776;3735;1;12969;29.64;32.44;31,7;BCS1388054;4;13
009675;25.08.2021;08:15:24;Charge to 60% ;03.12.2018;FEY;;LION;49;14500;7200;192;6;54;56;8400;3000;3701;3701;1;12985;29.64;32.74;33,5;BCS1388054;1;2
009675;25.08.2021;09:25:51;Stop          ;03.12.2018;FEY;;LION;49;14500;7200;192;6;57;60;8400;3000;3751;3751;1;12984;31.54;34.84;36,6;BCS1388054;1;2
009675;01.11.2021;09:51:48;Normalcharge  ;03.12.2018;FEY;;LION;49;14500;7200;192;6;55;57;8400;3000;3717;3717;1;13020;25.34;26.54;26,3;BCS1388054;7;12
009675;01.11.2021;09:53:51;Stop          ;03.12.2018;FEY;;LION;49;14500;7200;128;6;55;58;8400;3000;3813;3768;1;12652;25.44;28.94;27,4;BCS1388054;7;12
009675;01.11.2021;10:02:29;Normalcharge  ;03.12.2018;FEY;;LION;49;14500;7200;192;6;55;58;8400;3000;3723;3723;1;13015;25.54;27.64;29,5;BCS1388054;7;12
009675;01.11.2021;10:03:04;Stop          ;03.12.2018;FEY;;LION;49;14500;7200;128;6;55;58;8400;3000;3783;3751;1;12685;25.64;28.54;29,3;BCS1388054;7;12
009675;01.11.2021;10:27:23;Normalcharge  ;03.12.2018;FEY;;LION;49;14500;7200;192;6;55;58;8400;3000;3724;3724;1;13016;25.74;27.24;27,7;BCS1388054;7;12
009675;01.11.2021;10:29:22;Stop          ;03.12.2018;FEY;;LION;49;14500;7200;128;6;56;58;8400;3000;3819;3773;1;12652;25.84;29.54;28,6;BCS1388054;7;12

File: 009677.txt
Serialnumber ; Date ; Time ; Action ; Date of Manufacture ; Manufacturer ; Battery Name ; Device-Chemistry ; Specification-Info ; Design-Capacity [mAh] ; Design-Voltage [mV] ; Battery Status ; Cycle Count ; SOC [%] ; Relativ SOC[%] ; Desired Voltage [mV]; Desired Current [mA]; Cell Voltage 1 [mV] ; Cell Voltage 2 [mV] ; Max_Error [%] ; Busvoltage[mV] ; Battery Temperature [°C] ; Charger Temperature [°C] ; Batterysystem ; Case ; PLace
009677;01.12.2020;07:38:36;Cycle         ;30.11.2018;FEY;;LION;49;14500;7200;192;3;18;19;8400;3000;3443;3441;1;13007;24.94;26.04;28,8;BCS1388054;2;2
009677;02.12.2020;16:21:01;Stop          ;30.11.2018;FEY;;LION;49;14500;7200;224;4;98;100;8400;;4156;4157;1;13000;26.14;28.94;29,3;BCS1388054;2;2
009677;03.03.2021;08:17:46;Normalcharge  ;30.11.2018;FEY;;LION;49;14500;7200;2768;5;;;8400;3000;3062;3051;1;13035;22.64;23.04;23,6;BCS1388054;7;16
009677;03.03.2021;10:54:05;Stop          ;30.11.2018;FEY;;LION;49;14500;7200;128;5;31;32;8400;3000;3680;3626;1;12696;30.14;33.74;31,4;BCS1388054;7;16
009677;06.04.2021;08:39:21;Normalcharge  ;30.11.2018;FEY;;LION;49;14500;7200;192;5;53;54;8400;3000;3684;3684;1;13012;20.64;24.94;28,1;BCS1388054;7;9
009677;06.04.2021;08:40:08;Stop          ;30.11.2018;FEY;;LION;49;14500;7200;128;5;53;54;8400;3000;3764;3720;1;12930;20.74;26.64;28,5;BCS1388054;7;9
009677;08.04.2021;07:59:03;Normalcharge  ;30.11.2018;FEY;;LION;49;14500;7200;192;5;51;52;8400;3000;3666;3666;1;13013;24.64;25.24;26,4;BCS1388054;7;9
009677;08.04.2021;07:59:16;Stop          ;30.11.2018;FEY;;LION;49;14500;7200;192;5;51;52;8400;3000;3665;3666;1;13011;24.64;25.34;26,6;BCS1388054;7;9
009677;08.04.2021;10:36:43;Normalcharge  ;30.11.2018;FEY;;LION;49;14500;7200;192;5;51;52;8400;3000;3665;3666;1;13011;24.84;26.14;28,9;BCS1388054;7;9
009677;08.04.2021;10:37:15;Stop          ;30.11.2018;FEY;;LION;49;14500;7200;128;5;51;52;8400;3000;3708;3684;1;12944;24.84;27.24;29,2;BCS1388054;7;9
009677;18.04.2021;08:34:46;Normalcharge  ;30.11.2018;FEY;;LION;49;14500;7200;192;5;51;52;8400;3000;3664;3664;1;13009;25.54;26.94;28,2;BCS1388054;7;9
009677;18.04.2021;08:34:54;Stop          ;30.11.2018;FEY;;LION;49;14500;7200;192;5;51;52;8400;3000;3663;3664;1;13008;25.54;27.04;28,4;BCS1388054;7;9
009677;04.08.2021;07:24:29;Normalcharge  ;30.11.2018;FEY;;LION;49;14500;7200;192;5;51;52;8400;3000;3645;3645;1;13007;29.54;30.44;31,5;BCS1388054;7;9
009677;04.08.2021;07:25:08;Stop          ;30.11.2018;FEY;;LION;49;14500;7200;128;5;51;52;8400;3000;3682;3660;1;12960;29.54;31.64;31,6;BCS1388054;7;9
009677;25.08.2021;08:15:19;Charge to 60% ;30.11.2018;FEY;;LION;49;14500;7200;192;5;49;50;8400;3000;3641;3642;1;12978;29.84;32.34;33,5;BCS1388054;2;15
009677;25.08.2021;10:43:17;Stop          ;30.11.2018;FEY;;LION;49;14500;7200;192;5;58;60;8400;3000;3728;3728;1;12978;32.54;35.14;36,4;BCS1388054;2;15

File: 009683.txt
Serialnumber ; Date ; Time ; Action ; Date of Manufacture ; Manufacturer ; Battery Name ; Device-Chemistry ; Specification-Info ; Design-Capacity [mAh] ; Design-Voltage [mV] ; Battery Status ; Cycle Count ; SOC [%] ; Relativ SOC[%] ; Desired Voltage [mV]; Desired Current [mA]; Cell Voltage 1 [mV] ; Cell Voltage 2 [mV] ; Max_Error [%] ; Busvoltage[mV] ; Battery Temperature [°C] ; Charger Temperature [°C] ; Batterysystem ; Case ; PLace
009683;07.12.2020;04:14:21;Cycle         ;04.12.2018;FEY;;LION;49;14500;7200;224;3;100;99;8400;;4144;4146;1;12992;25.74;27.34;30,3;BCS1388054;2;13
009683;08.12.2020;16:19:44;Stop          ;04.12.2018;FEY;;LION;49;14500;7200;224;4;98;100;8400;;4151;4153;1;12991;27.84;29.14;31,9;BCS1388054;2;13
009683;03.03.2021;08:17:40;Normalcharge  ;04.12.2018;FEY;;LION;49;14500;7200;192;5;69;70;8400;3000;3853;3854;1;13020;23.24;24.14;23,6;BCS1388054;6;15
009683;03.03.2021;11:56:52;Stop          ;04.12.2018;FEY;;LION;49;14500;7200;224;5;99;100;8400;;4158;4161;1;13012;28.94;30.34;31,7;BCS1388054;6;15
009683;04.04.2021;11:50:28;Normalcharge  ;04.12.2018;FEY;;LION;49;14500;7200;224;5;97;99;8400;;4127;4130;1;13018;25.04;25.84;27,9;BCS1388054;3;14
009683;04.04.2021;11:51:43;Stop           ;04.12.2018;FEY;;LION;49;14500;7200;224;5;97;99;8400;;4128;4130;1;12802;25.14;26.14;28,6;BCS1388054;3;14
009683;22.08.2021;11:37:25;Normalcharge  ;04.12.2018;FEY;;LION;49;14500;7200;192;6;28;30;8400;3000;3560;3561;1;12999;21.64;28.84;31,9;BCS1388054;4;6
009683;22.08.2021;11:38:13;Stop          ;04.12.2018;FEY;;LION;49;14500;7200;128;6;28;30;8400;3000;3636;3597;1;12628;21.74;30.64;32,1;BCS1388054;4;6

File: 009686.txt
Serialnumber ; Date ; Time ; Action ; Date of Manufacture ; Manufacturer ; Battery Name ; Device-Chemistry ; Specification-Info ; Design-Capacity [mAh] ; Design-Voltage [mV] ; Battery Status ; Cycle Count ; SOC [%] ; Relativ SOC[%] ; Desired Voltage [mV]; Desired Current [mA]; Cell Voltage 1 [mV] ; Cell Voltage 2 [mV] ; Max_Error [%] ; Busvoltage[mV] ; Battery Temperature [°C] ; Charger Temperature [°C] ; Batterysystem ; Case ; PLace
009686;07.12.2020;04:14:17;Cycle         ;04.12.2018;FEY;;LION;49;14500;7200;224;2;99;99;8400;;4148;4149;1;13011;25.64;27.14;30,3;BCS1388054;1;16
009686;08.12.2020;16:19:38;Stop          ;04.12.2018;FEY;;LION;49;14500;7200;224;3;97;100;8400;;4153;4152;1;13010;27.34;28.44;31,9;BCS1388054;1;16
009686;03.03.2021;08:17:08;Normalcharge  ;04.12.2018;FEY;;LION;49;14500;7200;192;3;95;98;8400;;4116;4116;1;12997;23.04;22.84;23,5;BCS1388054;1;4
009686;04.03.2021;07:53:50;Stop          ;04.12.2018;FEY;;LION;49;14500;7200;192;3;95;98;8400;;4116;4115;1;12991;26.04;27.14;31,6;BCS1388054;1;4
009686;04.04.2021;11:50:02;Normalcharge  ;04.12.2018;FEY;;LION;49;14500;7200;2768;4;;;8400;3000;3093;3087;1;13014;24.74;26.34;27,7;BCS1388054;6;17
009686;04.04.2021;11:51:24;Stop          ;04.12.2018;FEY;;LION;49;14500;7200;144;4;;;8400;3000;3260;3206;1;12667;24.74;29.74;28,5;BCS1388054;6;17
009686;05.04.2021;09:38:25;Charge to 60% ;04.12.2018;FEY;;LION;49;14500;7200;720;4;;;8400;3000;3117;3111;1;13001;24.94;27.04;26,6;BCS1388054;6;2
009686;05.04.2021;13:29:53;Stop          ;04.12.2018;FEY;;LION;49;14500;7200;128;4;47;49;8400;3000;3776;3726;1;12924;29.74;35.34;31,9;BCS1388054;6;2
009686;06.04.2021;07:40:17;Charge to 60% ;04.12.2018;FEY;;LION;49;14500;7200;192;4;50;53;8400;3000;3674;3673;1;13003;24.84;25.84;25,1;BCS1388054;6;2
009686;06.04.2021;08:24:55;Stop          ;04.12.2018;FEY;;LION;49;14500;7200;192;4;57;60;8400;3000;3743;3742;1;12999;26.44;29.34;27,8;BCS1388054;6;2
009686;22.08.2021;11:08:18;Normalcharge  ;04.12.2018;FEY;;LION;49;14500;7200;192;4;52;54;8400;3000;3681;3680;1;13024;29.74;30.64;32,2;BCS1388054;7;1
009686;22.08.2021;11:08:50;Stop          ;04.12.2018;FEY;;LION;49;14500;7200;128;4;52;54;8400;3000;3702;3690;1;12862;29.64;31.84;32,6;BCS1388054;7;1
009686;25.08.2021;08:15:19;Charge to 60% ;04.12.2018;FEY;;LION;49;14500;7200;192;4;52;54;8400;3000;3681;3680;1;12993;30.24;32.34;33,5;BCS1388054;2;1
009686;25.08.2021;10:43:16;Stop          ;04.12.2018;FEY;;LION;49;14500;7200;192;4;57;60;8400;3000;3739;3738;1;12990;32.64;34.74;36,4;BCS1388054;2;1
009686;01.11.2021;09:52:14;Normalcharge  ;04.12.2018;FEY;;LION;49;14500;7200;192;4;54;56;8400;3000;3708;3706;1;13003;25.94;26.34;26,3;BCS1388054;2;8
009686;01.11.2021;09:53:18;Stop          ;04.12.2018;FEY;;LION;49;14500;7200;128;4;54;56;8400;3000;3795;3746;1;12521;25.84;28.84;26,8;BCS1388054;2;8
009686;01.11.2021;10:02:05;Normalcharge  ;04.12.2018;FEY;;LION;49;14500;7200;192;4;54;56;8400;3000;3710;3709;1;12995;26.04;28.24;29,5;BCS1388054;2;8
009686;01.11.2021;10:03:24;Stop          ;04.12.2018;FEY;;LION;49;14500;7200;128;4;54;56;8400;3000;3803;3751;1;12508;26.04;30.84;29,3;BCS1388054;2;8
009686;01.11.2021;10:18:11;Normalcharge  ;04.12.2018;FEY;;LION;49;14500;7200;192;4;54;56;8400;3000;3713;3712;1;12997;26.24;27.44;28,4;BCS1388054;2;8
009686;01.11.2021;10:18:48;Stop          ;04.12.2018;FEY;;LION;49;14500;7200;128;4;54;56;8400;3000;3775;3738;1;12627;26.14;28.84;28,2;BCS1388054;2;8
009686;01.11.2021;10:28:53;Normalcharge  ;04.12.2018;FEY;;LION;49;14500;7200;192;4;54;56;8400;3000;3714;3713;1;12996;26.24;27.74;28,2;BCS1388054;2;8
009686;01.11.2021;10:29:00;Stop          ;04.12.2018;FEY;;LION;49;14500;7200;192;4;54;56;8400;3000;3714;3713;1;12984;26.24;27.74;28,4;BCS1388054;2;8

File: 009700.txt
Serialnumber ; Date ; Time ; Action ; Date of Manufacture ; Manufacturer ; Battery Name ; Device-Chemistry ; Specification-Info ; Design-Capacity [mAh] ; Design-Voltage [mV] ; Battery Status ; Cycle Count ; SOC [%] ; Relativ SOC[%] ; Desired Voltage [mV]; Desired Current [mA]; Cell Voltage 1 [mV] ; Cell Voltage 2 [mV] ; Max_Error [%] ; Busvoltage[mV] ; Battery Temperature [°C] ; Charger Temperature [°C] ; Batterysystem ; Case ; PLace
009700;30.11.2020;09:42:55;Stop          ;04.12.2018;FEY;;LION;49;14500;7200;16576;4;97;100;;;4162;4161;1;13016;27.54;28.24;31,7;BCS1388054;7;12
009700;12.01.2021;04:16:00;Charge to 90% ;04.12.2018;FEY;;LION;49;14500;7200;16576;4;96;98;;;4138;4137;1;12992;23.04;23.34;23,0;BCS1388054;1;12
009700;12.01.2021;04:16:03;Stop          ;04.12.2018;FEY;;LION;49;14500;7200;16576;4;96;98;;;4138;4137;1;12993;23.04;23.84;23,0;BCS1388054;1;12
009700;12.01.2021;04:17:15;Charge to 90% ;04.12.2018;FEY;;LION;49;14500;7200;16576;4;96;98;;;4138;4138;1;12990;23.04;24.14;23,5;BCS1388054;1;12
009700;12.01.2021;04:55:18;Stop          ;04.12.2018;FEY;;LION;49;14500;7200;192;4;88;90;8400;3000;4039;4039;1;12986;27.64;29.94;31,7;BCS1388054;1;12
009700;12.01.2021;05:21:33;Cycle         ;04.12.2018;FEY;;LION;49;14500;7200;192;4;88;90;8400;3000;4059;4059;1;12988;26.94;27.24;30,6;BCS1388054;1;12
009700;13.01.2021;08:18:34;Stop          ;04.12.2018;FEY;;LION;49;14500;7200;224;6;97;100;8400;;4152;4152;1;12987;26.44;27.24;30,7;BCS1388054;1;12
009700;06.04.2021;08:39:21;Normalcharge  ;04.12.2018;FEY;;LION;49;14500;7200;192;6;91;94;8400;3000;4077;4077;1;13028;21.34;24.64;28,1;BCS1388054;7;6
009700;06.04.2021;08:40:08;Stop          ;04.12.2018;FEY;;LION;49;14500;7200;128;6;91;94;8400;3000;4135;4111;1;12950;21.34;26.04;28,5;BCS1388054;7;6
009700;08.04.2021;07:59:03;Normalcharge  ;04.12.2018;FEY;;LION;49;14500;7200;192;6;91;94;8400;3000;4077;4077;1;13030;25.14;24.74;26,4;BCS1388054;7;6
009700;08.04.2021;07:59:16;Stop          ;04.12.2018;FEY;;LION;49;14500;7200;192;6;91;94;8400;3000;4077;4077;1;13025;25.14;24.94;26,6;BCS1388054;7;6
009700;08.04.2021;10:36:43;Normalcharge  ;04.12.2018;FEY;;LION;49;14500;7200;192;6;91;94;8400;3000;4077;4077;1;13027;25.34;25.34;28,9;BCS1388054;7;6
009700;08.04.2021;10:37:15;Stop          ;04.12.2018;FEY;;LION;49;14500;7200;128;6;91;94;8400;3000;4119;4098;1;12965;25.34;26.34;29,2;BCS1388054;7;6
009700;18.04.2021;08:34:46;Normalcharge  ;04.12.2018;FEY;;LION;49;14500;7200;192;6;90;93;8400;3000;4074;4074;1;13026;26.04;26.04;28,2;BCS1388054;7;6
009700;18.04.2021;08:34:54;Stop          ;04.12.2018;FEY;;LION;49;14500;7200;192;6;90;93;8400;3000;4074;4074;1;13024;26.04;26.14;28,4;BCS1388054;7;6
009700;04.08.2021;07:24:29;Normalcharge  ;04.12.2018;FEY;;LION;49;14500;7200;192;6;89;93;8400;3000;4038;4038;1;13022;30.04;29.84;31,5;BCS1388054;7;6
009700;04.08.2021;07:25:08;Stop          ;04.12.2018;FEY;;LION;49;14500;7200;128;6;89;93;8400;3000;4067;4052;1;12970;30.04;31.14;31,6;BCS1388054;7;6
009700;25.08.2021;08:15:19;Charge to 60% ;04.12.2018;FEY;;LION;49;14500;7200;192;6;89;93;8400;3000;4031;4031;1;12986;30.34;31.94;33,5;BCS1388054;2;14
009700;25.08.2021;10:43:17;Stop          ;04.12.2018;FEY;;LION;49;14500;7200;192;6;57;60;8400;3000;3716;3715;1;12984;34.24;40.84;36,4;BCS1388054;2;14
009700;01.11.2021;09:51:47;Normalcharge  ;04.12.2018;FEY;;LION;49;14500;7200;192;6;52;55;8400;3000;3708;3707;1;13028;25.94;25.24;26,3;BCS1388054;7;4
009700;01.11.2021;09:53:50;Stop          ;04.12.2018;FEY;;LION;49;14500;7200;128;6;53;56;8400;3000;3805;3755;1;12685;26.04;30.04;27,4;BCS1388054;7;4
009700;01.11.2021;10:02:29;Normalcharge  ;04.12.2018;FEY;;LION;49;14500;7200;192;6;53;56;8400;3000;3713;3712;1;13025;26.14;27.54;29,5;BCS1388054;7;4
009700;01.11.2021;10:03:04;Stop          ;04.12.2018;FEY;;LION;49;14500;7200;128;6;53;56;8400;3000;3775;3738;1;12733;26.14;28.84;29,3;BCS1388054;7;4
009700;01.11.2021;10:27:23;Normalcharge  ;04.12.2018;FEY;;LION;49;14500;7200;192;6;53;56;8400;3000;3714;3713;1;13026;26.34;26.44;27,7;BCS1388054;7;4
009700;01.11.2021;10:29:22;Stop          ;04.12.2018;FEY;;LION;49;14500;7200;128;6;53;56;8400;3000;3808;3759;1;12674;26.34;30.74;28,6;BCS1388054;7;4