Folder: Battery_sort_V2/reader/Batterieverzeichnis_new (part 5)

File: 009585.txt
Serialnumber ; Date ; Time ; Action ; Date of Manufacture ; Manufacturer ; Battery Name ; Device-Chemistry ; Specification-Info ; Design-Capacity [mAh] ; Design-Voltage [mV] ; Battery Status ; Cycle Count ; SOC [%] ; Relativ SOC[%] ; Desired Voltage [mV]; Desired Current [mA]; Cell Voltage 1 [mV] ; Cell Voltage 2 [mV] ; Max_Error [%] ; Busvoltage[mV] ; Battery Temperature [°C] ; Charger Temperature [°C] ; Batterysystem ; Case ; PLace
009585;07.12.2020;04:14:40;Cycle         ;04.12.2018;FEY;;LION;49;14500;7200;192;1;96;96;8400;;4116;4115;1;13005;25.94;27.44;30,3;BCS1388054;7;9
009585;08.12.2020;16:20:20;Stop          ;04.12.2018;FEY;;LION;49;14500;7200;192;1;96;96;8400;;4114;4114;1;13006;28.04;28.64;31,9;BCS1388054;7;9
009585;12.01.2021;04:17:36;Charge to 90% ;04.12.2018;FEY;;LION;49;14500;7200;192;1;95;95;8400;3000;4103;4103;1;13008;23.44;23.14;23,6;BCS1388054;5;1
009585;12.01.2021;05:15:37;Stop          ;04.12.2018;FEY;;LION;49;14500;7200;192;1;90;90;8400;3000;4057;4057;1;13004;27.64;28.54;31,6;BCS1388054;5;1
009585;12.01.2021;05:21:53;Cycle         ;04.12.2018;FEY;;LION;49;14500;7200;192;1;90;90;8400;3000;4057;4057;1;13005;27.64;28.04;30,6;BCS1388054;5;1
009585;13.01.2021;08:31:10;Stop          ;04.12.2018;FEY;;LION;49;14500;7200;224;3;97;100;8400;;4157;4157;1;13003;27.34;28.04;31,1;BCS1388054;5;1
009585;03.03.2021;08:17:46;Normalcharge  ;04.12.2018;FEY;;LION;49;14500;7200;192;3;64;66;8400;3000;3815;3817;1;13028;23.44;23.14;23,6;BCS1388054;7;3
009585;03.03.2021;10:54:05;Stop          ;04.12.2018;FEY;;LION;49;14500;7200;128;3;95;98;8400;3000;4181;4151;1;12709;30.24;33.24;31,4;BCS1388054;7;3
009585;03.03.2021;10:55:49;Normalcharge  ;04.12.2018;FEY;;LION;49;14500;7200;192;3;95;98;8400;3000;4121;4121;1;13020;30.14;31.04;30,6;BCS1388054;7;3
009585;03.03.2021;17:03:24;Stop          ;04.12.2018;FEY;;LION;49;14500;7200;224;3;98;100;8400;;4153;4153;1;13022;26.64;27.44;31,4;BCS1388054;7;3
009585;04.04.2021;11:50:22;Normalcharge  ;04.12.2018;FEY;;LION;49;14500;7200;224;3;96;99;8400;;4133;4133;1;13004;25.24;25.74;27,9;BCS1388054;4;6
009585;04.04.2021;11:51:36;Stop          ;04.12.2018;FEY;;LION;49;14500;7200;224;3;96;99;8400;;4133;4133;1;12717;25.24;26.04;28,6;BCS1388054;4;6
009585;04.08.2021;07:25:01;Normalcharge  ;04.12.2018;FEY;;LION;49;14500;7200;192;3;92;95;8400;3000;4085;4084;1;12997;22.14;30.24;31,5;BCS1388054;1;17
009585;04.08.2021;07:25:57;Stop          ;04.12.2018;FEY;;LION;49;14500;7200;128;3;92;95;8400;3000;4148;4123;1;12769;22.34;32.14;31,9;BCS1388054;1;17
009585;22.08.2021;11:37:13;Normalcharge  ;04.12.2018;FEY;;LION;49;14500;7200;192;3;92;94;8400;3000;4081;4080;1;13029;24.14;30.14;31,9;BCS1388054;7;5
009585;22.08.2021;11:37:48;Stop          ;04.12.2018;FEY;;LION;49;14500;7200;192;3;92;94;8400;3000;4080;4080;1;13006;24.24;31.24;31,9;BCS1388054;7;5
009585;14.10.2021;12:40:04;Normalcharge  ;04.12.2018;FEY;;LION;49;14500;7200;192;3;73;75;8400;3000;3886;3887;1;13002;25.94;25.34;27,9;BCS1388054;3;16
009585;14.10.2021;12:41:33;Stop           ;04.12.2018;FEY;;LION;49;14500;7200;128;3;73;75;8400;3000;3977;3929;1;12594;25.94;28.54;28,4;BCS1388054;3;16
009585;07.02.2022;08:51:04;Normalcharge  ;04.12.2018;FEY;;LION;49;14500;7200;192;3;73;75;8400;3000;3862;3862;1;13009;22.54;22.44;25,1;BCS1388054;3;18
009585;07.02.2022;14:32:56;Stop           ;04.12.2018;FEY;;LION;49;14500;7200;224;3;98;100;8400;;4151;4150;1;13002;25.34;25.94;30,8;BCS1388054;3;18
009585;14.03.2022;12:14:36;Normalcharge  ;04.12.2018;FEY;;LION;49;14500;7200;224;3;96;99;8400;;4130;4129;1;12993;24.94;25.74;27,7;BCS1388054;3;8
009585;14.03.2022;12:18:51;Stop           ;04.12.2018;FEY;;LION;49;14500;7200;224;3;96;99;8400;;4130;4129;1;12959;24.94;26.64;29,5;BCS1388054;3;8

File: 009587.txt
Serialnumber ; Date ; Time ; Action ; Date of Manufacture ; Manufacturer ; Battery Name ; Device-Chemistry ; Specification-Info ; Design-Capacity [mAh] ; Design-Voltage [mV] ; Battery Status ; Cycle Count ; SOC [%] ; Relativ SOC[%] ; Desired Voltage [mV]; Desired Current [mA]; Cell Voltage 1 [mV] ; Cell Voltage 2 [mV] ; Max_Error [%] ; Busvoltage[mV] ; Battery Temperature [°C] ; Charger Temperature [°C] ; Batterysystem ; Case ; PLace
009587;07.02.2021;08:46:49;Normalcharge  ;04.12.2018;FEY;;LION;49;14500;7200;192;2;96;96;8400;;4112;4111;1;12999;23.74;26.04;29,2;BCS1388054;2;17
009587;07.02.2021;11:52:12;Stop          ;04.12.2018;FEY;;LION;49;14500;7200;192;2;96;96;8400;;4111;4111;1;13001;25.94;27.64;29,7;BCS1388054;2;17
009587;03.03.2021;08:17:21;Normalcharge  ;04.12.2018;FEY;;LION;49;14500;7200;192;3;94;93;8400;3000;4086;4085;1;13012;23.34;23.34;23,5;BCS1388054;3;10
009587;04.03.2021;07:53:40;Stop           ;04.12.2018;FEY;;LION;49;14500;7200;224;3;101;100;8400;;4148;4147;1;13006;26.64;27.54;31,5;BCS1388054;3;10
009587;04.04.2021;11:49:55;Normalcharge  ;04.12.2018;FEY;;LION;49;14500;7200;192;3;53;54;8400;3000;3690;3691;1;13033;25.24;25.14;27,5;BCS1388054;7;16
009587;04.04.2021;11:51:17;Stop          ;04.12.2018;FEY;;LION;49;14500;7200;128;3;53;55;8400;3000;3779;3732;1;12734;25.24;28.04;28,4;BCS1388054;7;16
009587;05.04.2021;09:37:46;Charge to 60% ;04.12.2018;FEY;;LION;49;14500;7200;192;3;53;55;8400;3000;3693;3694;1;13002;25.14;26.64;26,1;BCS1388054;2;12
009587;05.04.2021;10:03:48;Stop          ;04.12.2018;FEY;;LION;49;14500;7200;192;3;58;60;8400;3000;3761;3763;1;12998;27.44;28.64;31,4;BCS1388054;2;12
009587;22.08.2021;11:37:21;Normalcharge  ;04.12.2018;FEY;;LION;49;14500;7200;2768;4;;;8400;3000;2501;2641;1;13013;22.34;28.14;31,9;BCS1388054;5;8
009587;22.08.2021;11:38:04;Stop          ;04.12.2018;FEY;;LION;49;14500;7200;2768;4;;;8400;3000;2501;2640;1;12756;22.54;29.44;32,0;BCS1388054;5;8
009587;25.08.2021;08:15:02;Charge to 60% ;04.12.2018;FEY;;LION;49;14500;7200;2768;4;;;8400;3000;2538;2643;1;13010;30.54;31.94;33,2;BCS1388054;5;8
009587;25.08.2021;13:03:31;Stop          ;04.12.2018;FEY;;LION;49;14500;7200;128;4;57;60;8400;3000;3865;3815;1;13009;35.34;38.44;36,6;BCS1388054;5;8
009587;28.12.2021;09:01:29;Normalcharge  ;04.12.2018;FEY;;LION;49;14500;7200;192;4;35;36;8400;3000;3575;3576;1;13006;23.84;23.94;25,4;BCS1388054;4;17
009587;28.12.2021;09:02:38;Stop          ;04.12.2018;FEY;;LION;49;14500;7200;128;4;35;36;8400;3000;3664;3616;1;12565;23.94;26.94;25,8;BCS1388054;4;17
009587;28.12.2021;09:21:48;Charge to 60% ;04.12.2018;FEY;;LION;49;14500;7200;192;4;35;36;8400;3000;3577;3577;1;13004;23.94;15.04;26,1;BCS1388054;4;17
009587;28.12.2021;12:53:01;Stop          ;04.12.2018;FEY;;LION;49;14500;7200;192;4;58;60;8400;3000;3736;3736;1;12982;25.24;25.84;27,8;BCS1388054;4;17
009587;07.02.2022;08:50:37;Normalcharge  ;04.12.2018;FEY;;LION;49;14500;7200;192;4;56;57;8400;3000;3714;3715;1;13025;22.34;22.24;25,0;BCS1388054;7;12
009587;07.02.2022;14:21:07;Stop          ;04.12.2018;FEY;;LION;49;14500;7200;224;4;99;100;8400;;4155;4156;1;13019;24.84;25.34;28,9;BCS1388054;7;12

File: 009590.txt
Serialnumber ; Date ; Time ; Action ; Date of Manufacture ; Manufacturer ; Battery Name ; Device-Chemistry ; Specification-Info ; Design-Capacity [mAh] ; Design-Voltage [mV] ; Battery Status ; Cycle Count ; SOC [%] ; Relativ SOC[%] ; Desired Voltage [mV]; Desired Current [mA]; Cell Voltage 1 [mV] ; Cell Voltage 2 [mV] ; Max_Error [%] ; Busvoltage[mV] ; Battery Temperature [°C] ; Charger Temperature [°C] ; Batterysystem ; Case ; PLace
009590;12.01.2021;04:17:33;Charge to 90% ;04.12.2018;FEY;;LION;49;14500;7200;16576;3;96;96;;;4113;4112;1;13005;22.94;23.34;23,6;BCS1388054;4;15
009590;12.01.2021;04:57:16;Stop          ;04.12.2018;FEY;;LION;49;14500;7200;192;3;91;90;8400;3000;4060;4059;1;13000;26.34;29.34;31,6;BCS1388054;4;15
009590;12.01.2021;05:21:49;Cycle         ;04.12.2018;FEY;;LION;49;14500;7200;192;3;91;90;8400;3000;4063;4062;1;13002;26.74;28.14;30,4;BCS1388054;4;15
009590;13.01.2021;08:19:19;Stop          ;04.12.2018;FEY;;LION;49;14500;7200;224;4;99;100;8400;;4155;4156;1;13001;27.04;28.14;30,7;BCS1388054;4;15
009590;21.02.2021;13:43:32;Normalcharge  ;04.12.2018;FEY;;LION;49;14500;7200;192;5;60;61;8400;3000;3759;3757;1;13003;23.04;25.34;27,5;BCS1388054;2;4
009590;21.02.2021;19:27:00;Stop          ;04.12.2018;FEY;;LION;49;14500;7200;224;5;99;100;8400;;4154;4156;1;13003;26.74;28.24;31,1;BCS1388054;2;4
009590;06.04.2021;08:39:10;Normalcharge  ;04.12.2018;FEY;;LION;49;14500;7200;224;5;98;99;8400;;4128;4129;1;13014;21.44;25.64;28,1;BCS1388054;5;2
009590;06.04.2021;08:39:58;Stop          ;04.12.2018;FEY;;LION;49;14500;7200;224;5;98;99;8400;;4128;4129;1;13014;21.44;26.14;28,4;BCS1388054;5;2
009590;08.04.2021;07:58:30;Normalcharge  ;04.12.2018;FEY;;LION;49;14500;7200;224;5;97;99;8400;;4127;4129;1;13011;25.04;25.44;26,4;BCS1388054;5;2
009590;08.04.2021;07:59:28;Stop          ;04.12.2018;FEY;;LION;49;14500;7200;224;5;97;99;8400;;4127;4129;1;13010;25.04;26.14;26,7;BCS1388054;5;2
009590;08.04.2021;10:36:12;Normalcharge  ;04.12.2018;FEY;;LION;49;14500;7200;224;5;97;99;8400;;4127;4128;1;13010;25.24;26.64;28,6;BCS1388054;5;2
009590;08.04.2021;10:37:06;Stop          ;04.12.2018;FEY;;LION;49;14500;7200;224;5;97;99;8400;;4127;4128;1;13009;25.24;27.24;29,0;BCS1388054;5;2
009590;18.04.2021;08:34:16;Normalcharge  ;04.12.2018;FEY;;LION;49;14500;7200;192;5;97;98;8400;;4123;4125;1;13013;25.94;27.54;28,1;BCS1388054;5;2
009590;18.04.2021;08:34:27;Stop          ;04.12.2018;FEY;;LION;49;14500;7200;192;5;97;98;8400;;4124;4125;1;13012;25.94;27.54;28,2;BCS1388054;5;2
009590;04.08.2021;07:24:41;Normalcharge  ;04.12.2018;FEY;;LION;49;14500;7200;192;5;95;96;8400;;4091;4092;1;13007;30.04;30.94;31,5;BCS1388054;5;2
009590;04.08.2021;07:25:23;Stop          ;04.12.2018;FEY;;LION;49;14500;7200;192;5;95;96;8400;;4091;4092;1;13006;30.04;31.54;31,6;BCS1388054;5;2
009590;22.08.2021;11:37:13;Normalcharge  ;04.12.2018;FEY;;LION;49;14500;7200;192;5;94;95;8400;3000;4086;4086;1;13024;22.44;29.34;31,9;BCS1388054;7;18
009590;22.08.2021;11:37:48;Stop          ;04.12.2018;FEY;;LION;49;14500;7200;128;5;94;95;8400;3000;4106;4099;1;12984;22.54;30.54;31,9;BCS1388054;7;18

File: 009593.txt
Serialnumber ; Date ; Time ; Action ; Date of Manufacture ; Manufacturer ; Battery Name ; Device-Chemistry ; Specification-Info ; Design-Capacity [mAh] ; Design-Voltage [mV] ; Battery Status ; Cycle Count ; SOC [%] ; Relativ SOC[%] ; Desired Voltage [mV]; Desired Current [mA]; Cell Voltage 1 [mV] ; Cell Voltage 2 [mV] ; Max_Error [%] ; Busvoltage[mV] ; Battery Temperature [°C] ; Charger Temperature [°C] ; Batterysystem ; Case ; PLace
009593;07.12.2020;04:14:32;Cycle         ;04.12.2018;FEY;;LION;49;14500;7200;16576;2;99;98;;;4153;4154;1;13011;25.34;28.74;30,3;BCS1388054;5;2
009593;08.12.2020;16:20:01;Stop          ;04.12.2018;FEY;;LION;49;14500;7200;16576;2;99;98;;;4151;4151;1;13009;27.54;30.34;31,7;BCS1388054;5;2
009593;12.01.2021;04:17:36;Charge to 90% ;04.12.2018;FEY;;LION;49;14500;7200;16576;2;98;97;;;4134;4134;1;13021;22.74;24.64;23,6;BCS1388054;5;5
009593;12.01.2021;05:15:37;Stop          ;04.12.2018;FEY;;LION;49;14500;7200;192;2;91;90;8400;3000;4066;4066;1;13015;27.14;29.04;31,6;BCS1388054;5;5
009593;12.01.2021;05:21:53;Cycle         ;04.12.2018;FEY;;LION;49;14500;7200;192;2;91;90;8400;3000;4066;4067;1;13016;27.04;28.44;30,6;BCS1388054;5;5
009593;13.01.2021;08:31:10;Stop          ;04.12.2018;FEY;;LION;49;14500;7200;224;3;98;100;8400;;4156;4154;1;13015;26.54;28.44;31,1;BCS1388054;5;5
009593;21.02.2021;13:43:32;Normalcharge  ;04.12.2018;FEY;;LION;49;14500;7200;192;4;59;60;8400;3000;3737;3733;1;13005;22.94;26.14;27,5;BCS1388054;2;3
009593;21.02.2021;19:27:00;Stop          ;04.12.2018;FEY;;LION;49;14500;7200;224;4;99;100;8400;;4155;4155;1;13006;26.64;29.14;31,1;BCS1388054;2;3
009593;06.04.2021;08:39:10;Normalcharge  ;04.12.2018;FEY;;LION;49;14500;7200;224;4;97;99;8400;;4127;4127;1;13006;21.24;24.64;28,1;BCS1388054;5;1
009593;06.04.2021;08:39:58;Stop          ;04.12.2018;FEY;;LION;49;14500;7200;224;4;97;99;8400;;4127;4127;1;13006;21.34;25.04;28,4;BCS1388054;5;1
009593;08.04.2021;07:58:30;Normalcharge  ;04.12.2018;FEY;;LION;49;14500;7200;224;4;97;99;8400;;4127;4126;1;13006;24.84;24.44;26,4;BCS1388054;5;1
009593;08.04.2021;07:59:28;Stop          ;04.12.2018;FEY;;LION;49;14500;7200;224;4;97;99;8400;;4127;4126;1;13006;24.84;25.14;26,7;BCS1388054;5;1
009593;08.04.2021;10:36:12;Normalcharge  ;04.12.2018;FEY;;LION;49;14500;7200;224;4;97;99;8400;;4127;4126;1;13006;25.14;25.64;28,6;BCS1388054;5;1
009593;08.04.2021;10:37:06;Stop          ;04.12.2018;FEY;;LION;49;14500;7200;224;4;97;99;8400;;4127;4126;1;13005;25.14;26.14;29,0;BCS1388054;5;1
009593;18.04.2021;08:34:16;Normalcharge  ;04.12.2018;FEY;;LION;49;14500;7200;192;4;97;98;8400;;4123;4123;1;13005;25.74;26.44;28,1;BCS1388054;5;1
009593;18.04.2021;08:34:27;Stop          ;04.12.2018;FEY;;LION;49;14500;7200;192;4;97;98;8400;;4123;4122;1;13005;25.74;26.54;28,2;BCS1388054;5;1
009593;04.08.2021;07:24:41;Normalcharge  ;04.12.2018;FEY;;LION;49;14500;7200;192;4;95;96;8400;;4091;4091;1;13003;29.84;29.94;31,5;BCS1388054;5;1
009593;04.08.2021;07:25:23;Stop          ;04.12.2018;FEY;;LION;49;14500;7200;192;4;95;96;8400;;4091;4091;1;13002;29.84;30.54;31,6;BCS1388054;5;1
009593;22.08.2021;11:37:13;Normalcharge  ;04.12.2018;FEY;;LION;49;14500;7200;192;4;95;96;8400;;4086;4085;1;13019;22.14;29.74;31,9;BCS1388054;7;17
009593;22.08.2021;11:37:48;Stop          ;04.12.2018;FEY;;LION;49;14500;7200;192;4;95;96;8400;;4086;4086;1;12984;22.24;29.84;31,9;BCS1388054;7;17
009593;14.10.2021;12:40:18;Normalcharge  ;04.12.2018;FEY;;LION;49;14500;7200;192;4;93;94;8400;3000;4073;4072;1;13012;23.24;26.74;28,1;BCS1388054;6;17
009593;14.10.2021;12:41:59;Stop          ;04.12.2018;FEY;;LION;49;14500;7200;128;4;93;94;8400;3000;4137;4113;1;12640;23.34;30.04;28,5;BCS1388054;6;17

File: 009596.txt
Serialnumber ; Date ; Time ; Action ; Date of Manufacture ; Manufacturer ; Battery Name ; Device-Chemistry ; Specification-Info ; Design-Capacity [mAh] ; Design-Voltage [mV] ; Battery Status ; Cycle Count ; SOC [%] ; Relativ SOC[%] ; Desired Voltage [mV]; Desired Current [mA]; Cell Voltage 1 [mV] ; Cell Voltage 2 [mV] ; Max_Error [%] ; Busvoltage[mV] ; Battery Temperature [°C] ; Charger Temperature [°C] ; Batterysystem ; Case ; PLace
009596;07.12.2020;04:14:32;Cycle         ;04.12.2018;FEY;;LION;49;14500;7200;192;1;92;98;8400;;4129;4129;1;12992;25.74;27.54;30,3;BCS1388054;5;13
009596;08.12.2020;16:20:01;Stop          ;04.12.2018;FEY;;LION;49;14500;7200;192;1;93;98;8400;;4128;4128;1;12991;27.84;29.24;31,7;BCS1388054;5;13
009596;12.01.2021;04:17:36;Charge to 90% ;04.12.2018;FEY;;LION;49;14500;7200;192;1;91;97;8400;;4116;4116;1;13009;23.04;24.14;23,6;BCS1388054;5;3
009596;12.01.2021;05:15:37;Stop          ;04.12.2018;FEY;;LION;49;14500;7200;192;1;85;90;8400;3000;4060;4060;1;13002;27.14;29.44;31,6;BCS1388054;5;3
009596;12.01.2021;05:21:53;Cycle         ;04.12.2018;FEY;;LION;49;14500;7200;192;1;85;90;8400;3000;4060;4060;1;13003;27.14;29.04;30,6;BCS1388054;5;3
009596;13.01.2021;08:31:10;Stop          ;04.12.2018;FEY;;LION;49;14500;7200;224;2;96;100;8400;;4157;4157;1;13001;27.04;29.04;31,1;BCS1388054;5;3
009596;22.02.2021;17:31:46;Normalcharge  ;04.12.2018;FEY;;LION;49;14500;7200;192;3;62;65;8400;3000;3807;3807;1;12986;25.74;26.64;31,6;BCS1388054;1;12
009596;22.02.2021;23:06:28;Stop          ;04.12.2018;FEY;;LION;49;14500;7200;224;3;96;100;8400;;4154;4156;1;12988;26.24;27.04;30,6;BCS1388054;1;12
009596;06.04.2021;08:38:50;Normalcharge  ;04.12.2018;FEY;;LION;49;14500;7200;224;3;95;99;8400;;4128;4130;1;13003;20.74;24.84;28,1;BCS1388054;3;6
009596;06.04.2021;08:39:42;Stop           ;04.12.2018;FEY;;LION;49;14500;7200;224;3;95;99;8400;;4128;4130;1;13002;20.84;25.04;28,2;BCS1388054;3;6
009596;08.04.2021;07:58:01;Normalcharge  ;04.12.2018;FEY;;LION;49;14500;7200;224;3;94;99;8400;;4128;4129;1;12998;25.24;24.94;26,4;BCS1388054;3;6
009596;08.04.2021;07:59:40;Stop           ;04.12.2018;FEY;;LION;49;14500;7200;224;3;94;99;8400;;4128;4129;1;12997;25.24;25.44;26,8;BCS1388054;3;6
009596;08.04.2021;10:35:05;Normalcharge  ;04.12.2018;FEY;;LION;49;14500;7200;224;3;94;99;8400;;4128;4129;1;13002;25.54;25.24;28,1;BCS1388054;3;6
009596;08.04.2021;10:36:56;Stop           ;04.12.2018;FEY;;LION;49;14500;7200;224;3;94;99;8400;;4128;4129;1;13001;25.54;25.94;29,0;BCS1388054;3;6
009596;18.04.2021;08:33:50;Normalcharge  ;04.12.2018;FEY;;LION;49;14500;7200;192;3;94;98;8400;;4124;4125;1;13002;26.14;26.24;27,8;BCS1388054;3;6
009596;18.04.2021;08:33:58;Stop           ;04.12.2018;FEY;;LION;49;14500;7200;192;3;94;98;8400;;4124;4125;1;13002;26.14;26.34;27,9;BCS1388054;3;6
009596;04.08.2021;07:24:50;Normalcharge  ;04.12.2018;FEY;;LION;49;14500;7200;192;3;92;96;8400;;4092;4092;1;12994;30.34;30.54;31,6;BCS1388054;3;6
009596;04.08.2021;07:25:37;Stop           ;04.12.2018;FEY;;LION;49;14500;7200;192;3;92;96;8400;;4092;4092;1;12993;30.34;30.64;31,7;BCS1388054;3;6
009596;22.08.2021;11:37:13;Normalcharge  ;04.12.2018;FEY;;LION;49;14500;7200;192;3;92;96;8400;;4087;4088;1;13018;23.14;29.04;31,9;BCS1388054;7;3
009596;22.08.2021;11:37:48;Stop          ;04.12.2018;FEY;;LION;49;14500;7200;192;3;92;96;8400;;4087;4088;1;12998;23.24;29.34;31,9;BCS1388054;7;3
009596;14.10.2021;12:40:22;Normalcharge  ;04.12.2018;FEY;;LION;49;14500;7200;192;3;75;79;8400;3000;3921;3922;1;13018;23.44;26.74;28,1;BCS1388054;7;10
009596;14.10.2021;12:42:05;Stop          ;04.12.2018;FEY;;LION;49;14500;7200;128;3;75;79;8400;3000;4019;3972;1;12713;23.54;30.54;28,5;BCS1388054;7;10
009596;07.02.2022;08:51:51;Normalcharge  ;04.12.2018;FEY;;LION;49;14500;7200;192;3;75;79;8400;3000;3895;3896;1;12998;22.44;24.14;25,6;BCS1388054;1;8
009596;07.02.2022;13:16:30;Stop          ;04.12.2018;FEY;;LION;49;14500;7200;224;3;95;100;8400;;4151;4153;1;12995;25.64;28.04;31,2;BCS1388054;1;8
009596;14.03.2022;12:14:26;Normalcharge  ;04.12.2018;FEY;;LION;49;14500;7200;224;3;94;99;8400;;4129;4131;1;13005;24.04;24.34;27,5;BCS1388054;5;6
009596;14.03.2022;12:18:30;Stop          ;04.12.2018;FEY;;LION;49;14500;7200;224;3;94;99;8400;;4129;4131;1;13001;24.14;25.14;29,5;BCS1388054;5;6

File: 009600.txt
Serialnumber ; Date ; Time ; Action ; Date of Manufacture ; Manufacturer ; Battery Name ; Device-Chemistry ; Specification-Info ; Design-Capacity [mAh] ; Design-Voltage [mV] ; Battery Status ; Cycle Count ; SOC [%] ; Relativ SOC[%] ; Desired Voltage [mV]; Desired Current [mA]; Cell Voltage 1 [mV] ; Cell Voltage 2 [mV] ; Max_Error [%] ; Busvoltage[mV] ; Battery Temperature [°C] ; Charger Temperature [°C] ; Batterysystem ; Case ; PLace
009600;07.12.2020;04:14:36;Cycle         ;03.12.2018;FEY;;LION;49;14500;7200;192;2;96;97;8400;;4133;4134;1;12998;25.84;26.14;30,3;BCS1388054;6;12
009600;08.12.2020;16:20:13;Stop          ;03.12.2018;FEY;;LION;49;14500;7200;192;2;96;97;8400;;4131;4132;1;12996;27.74;27.44;31,9;BCS1388054;6;12
009600;12.01.2021;04:17:33;Charge to 90% ;03.12.2018;FEY;;LION;49;14500;7200;192;2;95;96;8400;;4119;4119;1;13015;23.14;24.14;23,6;BCS1388054;4;10
009600;12.01.2021;04:57:16;Stop          ;03.12.2018;FEY;;LION;49;14500;7200;192;2;90;90;8400;3000;4062;4063;1;13010;26.64;29.14;31,6;BCS1388054;4;10
009600;12.01.2021;05:21:49;Cycle         ;03.12.2018;FEY;;LION;49;14500;7200;192;2;90;90;8400;3000;4065;4065;1;13011;26.94;28.04;30,4;BCS1388054;4;10
009600;13.01.2021;08:19:19;Stop          ;03.12.2018;FEY;;LION;49;14500;7200;224;3;98;100;8400;;4156;4157;1;13010;27.24;28.14;30,7;BCS1388054;4;10
009600;21.02.2021;13:43:32;Normalcharge  ;03.12.2018;FEY;;LION;49;14500;7200;192;4;68;70;8400;3000;3855;3855;1;12999;23.24;25.14;27,5;BCS1388054;2;12
009600;21.02.2021;19:27:00;Stop          ;03.12.2018;FEY;;LION;49;14500;7200;224;4;98;100;8400;;4154;4153;1;12999;26.64;27.64;31,1;BCS1388054;2;12
009600;04.04.2021;11:50:10;Normalcharge  ;03.12.2018;FEY;;LION;49;14500;7200;192;4;53;55;8400;3000;3697;3697;1;13010;25.04;25.84;27,8;BCS1388054;5;11
009600;04.04.2021;11:51:30;Stop          ;03.12.2018;FEY;;LION;49;14500;7200;128;4;53;55;8400;3000;3784;3738;1;12675;25.04;28.54;28,5;BCS1388054;5;11
009600;05.04.2021;09:37:46;Charge to 60% ;03.12.2018;FEY;;LION;49;14500;7200;192;4;53;55;8400;3000;3699;3699;1;12998;25.14;25.64;26,1;BCS1388054;2;13
009600;05.04.2021;10:03:48;Stop          ;03.12.2018;FEY;;LION;49;14500;7200;192;4;58;60;8400;3000;3765;3767;1;12993;27.04;31.04;31,4;BCS1388054;2;13
009600;22.08.2021;11:08:13;Normalcharge  ;03.12.2018;FEY;;LION;49;14500;7200;192;4;54;55;8400;3000;3704;3704;1;12995;29.94;31.44;32,2;BCS1388054;6;2
009600;22.08.2021;11:08:46;Stop          ;03.12.2018;FEY;;LION;49;14500;7200;128;4;54;55;8400;3000;3734;3717;1;12822;29.94;32.84;32,5;BCS1388054;6;2
009600;25.08.2021;08:15:08;Charge to 60% ;03.12.2018;FEY;;LION;49;14500;7200;192;4;54;55;8400;3000;3704;3703;1;12991;30.44;32.84;33,4;BCS1388054;4;3
009600;25.08.2021;12:59:17;Stop          ;03.12.2018;FEY;;LION;49;14500;7200;192;4;58;60;8400;3000;3756;3757;1;12991;32.94;35.44;36,6;BCS1388054;4;3
009600;01.11.2021;09:52:14;Normalcharge  ;03.12.2018;FEY;;LION;49;14500;7200;192;4;56;57;8400;3000;3723;3723;1;13003;25.84;26.44;26,3;BCS1388054;2;4
009600;01.11.2021;09:53:17;Stop          ;03.12.2018;FEY;;LION;49;14500;7200;128;4;56;57;8400;3000;3811;3764;1;12519;25.84;29.34;26,8;BCS1388054;2;4
009600;01.11.2021;10:02:05;Normalcharge  ;03.12.2018;FEY;;LION;49;14500;7200;192;4;56;57;8400;3000;3726;3726;1;12996;25.94;28.24;29,5;BCS1388054;2;4
009600;01.11.2021;10:03:24;Stop          ;03.12.2018;FEY;;LION;49;14500;7200;128;4;56;58;8400;3000;3818;3768;1;12513;26.04;30.94;29,3;BCS1388054;2;4
009600;01.11.2021;10:18:11;Normalcharge  ;03.12.2018;FEY;;LION;49;14500;7200;192;4;56;58;8400;3000;3729;3730;1;12998;26.24;27.44;28,4;BCS1388054;2;4
009600;01.11.2021;10:18:48;Stop          ;03.12.2018;FEY;;LION;49;14500;7200;128;4;56;58;8400;3000;3790;3756;1;12583;26.24;28.94;28,2;BCS1388054;2;4
009600;01.11.2021;10:28:53;Normalcharge  ;03.12.2018;FEY;;LION;49;14500;7200;192;4;56;58;8400;3000;3730;3730;1;12995;26.24;27.84;28,2;BCS1388054;2;4
009600;01.11.2021;10:29:00;Stop          ;03.12.2018;FEY;;LION;49;14500;7200;192;4;56;58;8400;3000;3730;3730;1;12983;26.24;27.94;28,4;BCS1388054;2;4
009600;01.11.2021;11:53:39;Stop          ;03.12.2018;FEY;;LION;49;14500;7200;192;4;58;60;8400;3000;3759;3760;1;12996;28.04;30.04;32,5;BCS1388054;2;4
009600;07.02.2022;08:50:57;Normalcharge  ;03.12.2018;FEY;;LION;49;14500;7200;192;4;56;57;8400;3000;3718;3717;1;13014;22.34;22.24;25,1;BCS1388054;4;13
009600;07.02.2022;13:19:09;Stop          ;03.12.2018;FEY;;LION;49;14500;7200;224;4;97;100;8400;;4162;4162;1;13009;27.34;27.74;29,7;BCS1388054;4;13
009600;14.03.2022;12:14:39;Normalcharge  ;03.12.2018;FEY;;LION;49;14500;7200;224;4;96;99;8400;;4131;4131;1;13000;24.44;24.84;27,7;BCS1388054;2;11
009600;14.03.2022;12:15:13;Stop          ;03.12.2018;FEY;;LION;49;14500;7200;224;4;96;99;8400;;4131;4131;1;12999;24.44;25.04;27,9;BCS1388054;2;11
009600;14.03.2022;12:17:51;Normalcharge  ;03.12.2018;FEY;;LION;49;14500;7200;224;4;96;99;8400;;4131;4131;1;12997;24.54;25.24;29,2;BCS1388054;2;11
009600;14.03.2022;12:18:32;Stop          ;03.12.2018;FEY;;LION;49;14500;7200;224;4;96;99;8400;;4131;4131;1;12997;24.54;25.24;29,5;BCS1388054;2;11
009600;14.03.2022;12:19:02;Normalcharge  ;03.12.2018;FEY;;LION;49;14500;7200;224;4;96;99;8400;;4131;4131;1;12998;24.54;25.24;29,5;BCS1388054;2;11
009600;14.03.2022;12:19:06;Stop          ;03.12.2018;FEY;;LION;49;14500;7200;224;4;96;99;8400;;4131;4131;1;12997;24.54;25.34;29,6;BCS1388054;2;11