Folder: Battery_sort_V2/reader/Batterieverzeichnis_new (part 11)

File: 009721.txt
Serialnumber ; Date ; Time ; Action ; Date of Manufacture ; Manufacturer ; Battery Name ; Device-Chemistry ; Specification-Info ; Design-Capacity [mAh] ; Design-Voltage [mV] ; Battery Status ; Cycle Count ; SOC [%] ; Relativ SOC[%] ; Desired Voltage [mV]; Desired Current [mA]; Cell Voltage 1 [mV] ; Cell Voltage 2 [mV] ; Max_Error [%] ; Busvoltage[mV] ; Battery Temperature [°C] ; Charger Temperature [°C] ; Batterysystem ; Case ; PLace
009721;12.01.2021;04:16:00;Charge to 90% ;04.12.2018;FEY;;LION;49;14500;7200;16576;2;94;96;;;4113;4113;1;13007;23.24;19.04;23,0;BCS1388054;1;18
009721;12.01.2021;04:16:03;Stop          ;04.12.2018;FEY;;LION;49;14500;7200;16576;2;94;96;;;4113;4113;1;13009;23.24;22.74;23,0;BCS1388054;1;18
009721;12.01.2021;04:17:15;Charge to 90% ;04.12.2018;FEY;;LION;49;14500;7200;16576;2;94;96;;;4113;4113;1;13005;23.34;23.34;23,5;BCS1388054;1;18
009721;12.01.2021;04:55:18;Stop          ;04.12.2018;FEY;;LION;49;14500;7200;192;2;88;90;8400;3000;4063;4063;1;12998;27.64;29.24;31,7;BCS1388054;1;18
009721;12.01.2021;05:21:33;Cycle         ;04.12.2018;FEY;;LION;49;14500;7200;192;2;88;90;8400;3000;4066;4065;1;13000;27.04;27.54;30,6;BCS1388054;1;18
009721;13.01.2021;08:18:34;Stop          ;04.12.2018;FEY;;LION;49;14500;7200;224;4;97;100;8400;;4155;4157;1;13000;26.64;27.34;30,7;BCS1388054;1;18
009721;21.02.2021;13:45:29;Normalcharge  ;04.12.2018;FEY;;LION;49;14500;7200;192;5;28;29;8400;3000;3534;3536;1;13013;23.24;23.64;27,8;BCS1388054;6;11
009721;06.04.2021;08:38:40;Normalcharge  ;04.12.2018;FEY;;LION;49;14500;7200;224;5;96;99;8400;;4128;4128;1;12996;21.54;25.54;28,1;BCS1388054;1;9
009721;06.04.2021;08:39:29;Stop          ;04.12.2018;FEY;;LION;49;14500;7200;224;5;96;99;8400;;4128;4128;1;12994;21.64;25.94;28,2;BCS1388054;1;9
009721;08.04.2021;07:57:52;Normalcharge  ;04.12.2018;FEY;;LION;49;14500;7200;224;5;96;99;8400;;4128;4128;1;12997;25.44;25.54;26,3;BCS1388054;1;9
009721;08.04.2021;07:59:50;Stop          ;04.12.2018;FEY;;LION;49;14500;7200;224;5;96;99;8400;;4128;4128;1;12940;25.54;26.54;26,8;BCS1388054;1;9
009721;08.04.2021;10:34:35;Normalcharge  ;04.12.2018;FEY;;LION;49;14500;7200;224;5;96;99;8400;;4128;4128;1;12990;26.64;27.74;28,1;BCS1388054;1;9
009721;08.04.2021;10:36:49;Stop          ;04.12.2018;FEY;;LION;49;14500;7200;224;5;96;99;8400;;4128;4128;1;12883;26.64;27.84;28,9;BCS1388054;1;9
009721;18.04.2021;08:33:24;Normalcharge  ;04.12.2018;FEY;;LION;49;14500;7200;192;5;96;98;8400;;4124;4124;1;12994;26.44;26.94;27,7;BCS1388054;1;9
009721;18.04.2021;08:33:29;Stop          ;04.12.2018;FEY;;LION;49;14500;7200;192;5;96;98;8400;;4124;4124;1;12990;26.44;26.94;27,7;BCS1388054;1;9
009721;04.08.2021;07:25:01;Normalcharge  ;04.12.2018;FEY;;LION;49;14500;7200;192;5;94;96;8400;;4093;4093;1;12986;30.84;31.24;31,5;BCS1388054;1;9
009721;04.08.2021;07:25:57;Stop          ;04.12.2018;FEY;;LION;49;14500;7200;192;5;94;96;8400;;4093;4093;1;12774;30.84;31.54;31,9;BCS1388054;1;9
009721;22.08.2021;11:07:51;Normalcharge  ;04.12.2018;FEY;;LION;49;14500;7200;192;5;94;96;8400;;4088;4088;1;13005;23.04;30.04;32,0;BCS1388054;1;16
009721;22.08.2021;11:08:24;Stop          ;04.12.2018;FEY;;LION;49;14500;7200;192;5;94;96;8400;;4088;4089;1;12599;23.14;30.04;32,4;BCS1388054;1;16
009721;14.10.2021;12:40:03;Normalcharge  ;04.12.2018;FEY;;LION;49;14500;7200;192;5;92;94;8400;3000;4076;4076;1;12994;25.34;26.64;27,9;BCS1388054;3;8
009721;14.10.2021;12:41:32;Stop           ;04.12.2018;FEY;;LION;49;14500;7200;128;5;92;94;8400;3000;4144;4117;1;12611;25.44;29.34;28,4;BCS1388054;3;8
009721;14.03.2022;12:14:30;Normalcharge  ;04.12.2018;FEY;;LION;49;14500;7200;192;5;87;89;8400;3000;4021;4022;1;13002;24.64;24.94;27,5;BCS1388054;4;14
009721;14.03.2022;12:18:42;Stop          ;04.12.2018;FEY;;LION;49;14500;7200;128;5;87;90;8400;3000;4124;4086;1;12795;24.84;30.74;29,5;BCS1388054;4;14

File: 009722.txt
Serialnumber ; Date ; Time ; Action ; Date of Manufacture ; Manufacturer ; Battery Name ; Device-Chemistry ; Specification-Info ; Design-Capacity [mAh] ; Design-Voltage [mV] ; Battery Status ; Cycle Count ; SOC [%] ; Relativ SOC[%] ; Desired Voltage [mV]; Desired Current [mA]; Cell Voltage 1 [mV] ; Cell Voltage 2 [mV] ; Max_Error [%] ; Busvoltage[mV] ; Battery Temperature [°C] ; Charger Temperature [°C] ; Batterysystem ; Case ; PLace
009722;07.12.2020;04:14:28;Cycle         ;04.12.2018;FEY;;LION;49;14500;7200;192;2;97;98;8400;;4144;4145;1;12992;25.74;28.84;30,3;BCS1388054;4;2
009722;08.12.2020;16:19:56;Stop          ;04.12.2018;FEY;;LION;49;14500;7200;192;2;97;98;8400;;4142;4143;1;12991;27.94;30.34;31,9;BCS1388054;4;2
009722;12.01.2021;04:17:47;Charge to 90% ;04.12.2018;FEY;;LION;49;14500;7200;192;2;96;97;8400;;4127;4128;1;13024;23.14;23.84;23,8;BCS1388054;7;12
009722;12.01.2021;04:57:20;Stop          ;04.12.2018;FEY;;LION;49;14500;7200;192;2;90;90;8400;3000;4061;4061;1;13019;27.24;27.74;31,5;BCS1388054;7;12
009722;12.01.2021;05:22:01;Cycle         ;04.12.2018;FEY;;LION;49;14500;7200;192;2;90;90;8400;3000;4065;4065;1;13019;26.74;26.54;30,4;BCS1388054;7;12
009722;13.01.2021;08:19:29;Stop          ;04.12.2018;FEY;;LION;49;14500;7200;224;4;97;100;8400;;4155;4156;1;13019;26.34;26.94;30,7;BCS1388054;7;12
009722;21.02.2021;13:43:19;Normalcharge  ;04.12.2018;FEY;;LION;49;14500;7200;192;4;47;49;8400;3000;3648;3649;1;12995;23.74;25.04;27,5;BCS1388054;1;4
009722;22.02.2021;17:08:49;Stop          ;04.12.2018;FEY;;LION;49;14500;7200;224;4;97;100;8400;;4147;4148;1;12995;26.24;26.64;30,0;BCS1388054;1;4
009722;06.04.2021;08:39:16;Normalcharge  ;04.12.2018;FEY;;LION;49;14500;7200;224;4;96;99;8400;;4127;4127;1;13005;21.44;25.64;28,1;BCS1388054;6;9
009722;06.04.2021;08:40:03;Stop          ;04.12.2018;FEY;;LION;49;14500;7200;224;4;96;99;8400;;4126;4127;1;12984;21.54;25.74;28,5;BCS1388054;6;9
009722;08.04.2021;07:58:44;Normalcharge  ;04.12.2018;FEY;;LION;49;14500;7200;224;4;96;99;8400;;4126;4127;1;13009;25.34;24.54;26,4;BCS1388054;6;9
009722;08.04.2021;07:59:23;Stop          ;04.12.2018;FEY;;LION;49;14500;7200;224;4;96;99;8400;;4126;4126;1;13009;25.34;25.74;26,7;BCS1388054;6;9
009722;08.04.2021;10:36:16;Normalcharge  ;04.12.2018;FEY;;LION;49;14500;7200;224;4;96;99;8400;;4126;4127;1;13007;25.54;26.34;28,6;BCS1388054;6;9
009722;08.04.2021;10:37:11;Stop          ;04.12.2018;FEY;;LION;49;14500;7200;224;4;96;99;8400;;4126;4127;1;12987;25.54;26.74;29,2;BCS1388054;6;9
009722;18.04.2021;08:34:33;Normalcharge  ;04.12.2018;FEY;;LION;49;14500;7200;224;4;96;99;8400;;4123;4123;1;13005;26.24;27.24;28,2;BCS1388054;6;9
009722;18.04.2021;08:34:41;Stop          ;04.12.2018;FEY;;LION;49;14500;7200;224;4;96;99;8400;;4122;4123;1;13004;26.24;27.24;28,2;BCS1388054;6;9
009722;04.08.2021;07:24:35;Normalcharge  ;04.12.2018;FEY;;LION;49;14500;7200;192;4;94;96;8400;;4091;4091;1;13002;30.24;30.74;31,5;BCS1388054;6;9
009722;04.08.2021;07:25:17;Stop          ;04.12.2018;FEY;;LION;49;14500;7200;192;4;94;96;8400;;4091;4091;1;12985;30.24;31.04;31,6;BCS1388054;6;9
009722;22.08.2021;11:08:00;Normalcharge  ;04.12.2018;FEY;;LION;49;14500;7200;192;4;94;96;8400;;4086;4086;1;12999;22.44;28.64;32,1;BCS1388054;3;16
009722;22.08.2021;11:08:34;Stop           ;04.12.2018;FEY;;LION;49;14500;7200;192;4;94;96;8400;;4086;4086;1;12702;22.54;28.64;32,4;BCS1388054;3;16
009722;14.10.2021;12:39:52;Normalcharge  ;04.12.2018;FEY;;LION;49;14500;7200;192;5;68;70;8400;3000;3848;3849;1;13001;24.84;25.94;27,9;BCS1388054;1;17
009722;14.10.2021;12:41:15;Stop          ;04.12.2018;FEY;;LION;49;14500;7200;128;5;68;70;8400;3000;3942;3893;1;12452;24.94;29.44;28,2;BCS1388054;1;17
009722;07.02.2022;08:51:46;Normalcharge  ;04.12.2018;FEY;;LION;49;14500;7200;192;5;68;70;8400;3000;3822;3822;1;13007;22.34;23.64;25,6;BCS1388054;2;4
009722;07.02.2022;13:15:56;Stop          ;04.12.2018;FEY;;LION;49;14500;7200;224;5;97;100;8400;;4153;4153;1;13001;26.04;27.44;31,1;BCS1388054;2;4
009722;14.03.2022;12:14:39;Normalcharge  ;04.12.2018;FEY;;LION;49;14500;7200;224;5;96;99;8400;;4129;4129;1;13004;24.54;25.74;27,7;BCS1388054;2;8
009722;14.03.2022;12:15:13;Stop          ;04.12.2018;FEY;;LION;49;14500;7200;224;5;96;99;8400;;4129;4129;1;13002;24.54;26.04;27,9;BCS1388054;2;8
009722;14.03.2022;12:17:51;Normalcharge  ;04.12.2018;FEY;;LION;49;14500;7200;224;5;96;99;8400;;4129;4129;1;13001;24.54;26.44;29,2;BCS1388054;2;8
009722;14.03.2022;12:18:32;Stop          ;04.12.2018;FEY;;LION;49;14500;7200;224;5;96;99;8400;;4129;4129;1;13000;24.54;26.44;29,5;BCS1388054;2;8
009722;14.03.2022;12:19:02;Normalcharge  ;04.12.2018;FEY;;LION;49;14500;7200;224;5;96;99;8400;;4129;4129;1;13001;24.54;26.54;29,5;BCS1388054;2;8
009722;14.03.2022;12:19:06;Stop          ;04.12.2018;FEY;;LION;49;14500;7200;224;5;96;99;8400;;4129;4129;1;13000;24.64;26.54;29,6;BCS1388054;2;8

File: 009725.txt
Serialnumber ; Date ; Time ; Action ; Date of Manufacture ; Manufacturer ; Battery Name ; Device-Chemistry ; Specification-Info ; Design-Capacity [mAh] ; Design-Voltage [mV] ; Battery Status ; Cycle Count ; SOC [%] ; Relativ SOC[%] ; Desired Voltage [mV]; Desired Current [mA]; Cell Voltage 1 [mV] ; Cell Voltage 2 [mV] ; Max_Error [%] ; Busvoltage[mV] ; Battery Temperature [°C] ; Charger Temperature [°C] ; Batterysystem ; Case ; PLace
009725;12.01.2021;04:17:22;Charge to 90% ;04.12.2018;FEY;;LION;49;14500;7200;192;2;91;93;8400;3000;4085;4084;1;13008;23.14;24.14;23,5;BCS1388054;2;2
009725;12.01.2021;04:54:21;Stop          ;04.12.2018;FEY;;LION;49;14500;7200;192;2;89;90;8400;3000;4062;4062;1;13000;25.94;31.44;31,9;BCS1388054;2;2
009725;12.01.2021;05:21:40;Cycle         ;04.12.2018;FEY;;LION;49;14500;7200;192;2;89;90;8400;3000;4064;4063;1;13002;26.74;29.34;30,6;BCS1388054;2;2
009725;13.01.2021;08:20:19;Stop          ;04.12.2018;FEY;;LION;49;14500;7200;224;3;97;100;8400;;4156;4156;1;13002;27.14;29.14;30,8;BCS1388054;2;2
009725;22.02.2021;17:31:46;Normalcharge  ;04.12.2018;FEY;;LION;49;14500;7200;192;4;57;59;8400;3000;3735;3737;1;13001;26.24;26.24;31,6;BCS1388054;1;17
009725;22.02.2021;23:06:28;Stop          ;04.12.2018;FEY;;LION;49;14500;7200;224;4;97;100;8400;;4155;4154;1;13002;26.44;27.54;30,6;BCS1388054;1;17
009725;06.04.2021;08:39:10;Normalcharge  ;04.12.2018;FEY;;LION;49;14500;7200;224;4;96;99;8400;;4128;4127;1;13015;21.54;26.24;28,1;BCS1388054;5;5
009725;06.04.2021;08:39:58;Stop          ;04.12.2018;FEY;;LION;49;14500;7200;224;4;96;99;8400;;4128;4127;1;13014;21.64;26.44;28,4;BCS1388054;5;5
009725;08.04.2021;07:58:30;Normalcharge  ;04.12.2018;FEY;;LION;49;14500;7200;224;4;96;99;8400;;4129;4128;1;13020;25.24;26.34;26,4;BCS1388054;5;5
009725;08.04.2021;07:59:28;Stop          ;04.12.2018;FEY;;LION;49;14500;7200;224;4;96;99;8400;;4128;4127;1;13018;25.24;26.74;26,7;BCS1388054;5;5
009725;08.04.2021;10:36:12;Normalcharge  ;04.12.2018;FEY;;LION;49;14500;7200;224;4;96;99;8400;;4128;4127;1;13014;25.44;27.14;28,6;BCS1388054;5;5
009725;08.04.2021;10:37:06;Stop          ;04.12.2018;FEY;;LION;49;14500;7200;224;4;96;99;8400;;4128;4127;1;13013;25.44;27.34;29,0;BCS1388054;5;5
009725;18.04.2021;08:34:16;Normalcharge  ;04.12.2018;FEY;;LION;49;14500;7200;224;4;95;99;8400;;4124;4123;1;13014;26.14;27.94;28,1;BCS1388054;5;5
009725;18.04.2021;08:34:27;Stop          ;04.12.2018;FEY;;LION;49;14500;7200;224;4;95;99;8400;;4125;4124;1;13013;26.14;27.94;28,2;BCS1388054;5;5
009725;04.08.2021;07:24:41;Normalcharge  ;04.12.2018;FEY;;LION;49;14500;7200;192;4;93;96;8400;;4092;4091;1;13015;30.24;31.84;31,5;BCS1388054;5;5
009725;04.08.2021;07:25:23;Stop          ;04.12.2018;FEY;;LION;49;14500;7200;192;4;93;96;8400;;4092;4091;1;13015;30.24;32.14;31,6;BCS1388054;5;5
009725;22.08.2021;11:08:08;Normalcharge  ;04.12.2018;FEY;;LION;49;14500;7200;192;4;93;96;8400;;4088;4087;1;13012;30.04;30.84;32,1;BCS1388054;5;5
009725;22.08.2021;11:08:41;Stop          ;04.12.2018;FEY;;LION;49;14500;7200;192;4;93;96;8400;;4088;4087;1;12839;30.04;31.04;32,5;BCS1388054;5;5
009725;12.10.2021;12:15:28;Normalcharge  ;04.12.2018;FEY;;LION;49;14500;7200;192;4;79;81;8400;3000;3944;3943;1;13006;23.44;26.54;27,9;BCS1388054;2;16
009725;12.10.2021;12:15:46;Stop          ;04.12.2018;FEY;;LION;49;14500;7200;192;4;79;81;8400;3000;3945;3943;1;13000;23.44;27.14;27,9;BCS1388054;2;16
009725;14.10.2021;12:40:18;Normalcharge  ;04.12.2018;FEY;;LION;49;14500;7200;192;4;79;81;8400;3000;3944;3943;1;12996;23.34;26.44;28,1;BCS1388054;6;10
009725;14.10.2021;12:41:59;Stop          ;04.12.2018;FEY;;LION;49;14500;7200;128;4;79;82;8400;3000;4043;3995;1;12628;23.54;30.24;28,5;BCS1388054;6;10

File: 009726.txt
Serialnumber ; Date ; Time ; Action ; Date of Manufacture ; Manufacturer ; Battery Name ; Device-Chemistry ; Specification-Info ; Design-Capacity [mAh] ; Design-Voltage [mV] ; Battery Status ; Cycle Count ; SOC [%] ; Relativ SOC[%] ; Desired Voltage [mV]; Desired Current [mA]; Cell Voltage 1 [mV] ; Cell Voltage 2 [mV] ; Max_Error [%] ; Busvoltage[mV] ; Battery Temperature [°C] ; Charger Temperature [°C] ; Batterysystem ; Case ; PLace
009726;12.01.2021;04:16:00;Charge to 90% ;04.12.2018;FEY;;LION;49;14500;7200;192;3;97;97;8400;;4129;4129;1;12997;23.24;19.34;23,0;BCS1388054;1;1
009726;12.01.2021;04:16:03;Stop          ;04.12.2018;FEY;;LION;49;14500;7200;192;3;97;97;8400;;4129;4129;1;12997;23.24;22.54;23,0;BCS1388054;1;1
009726;12.01.2021;04:17:15;Charge to 90% ;04.12.2018;FEY;;LION;49;14500;7200;192;3;97;97;8400;;4129;4129;1;12996;23.24;23.44;23,5;BCS1388054;1;1
009726;12.01.2021;04:55:18;Stop          ;04.12.2018;FEY;;LION;49;14500;7200;192;3;90;90;8400;3000;4061;4060;1;12993;26.94;30.04;31,7;BCS1388054;1;1
009726;12.01.2021;05:21:33;Cycle         ;04.12.2018;FEY;;LION;49;14500;7200;192;3;90;90;8400;3000;4066;4066;1;12993;27.04;28.14;30,6;BCS1388054;1;1
009726;13.01.2021;08:18:34;Stop          ;04.12.2018;FEY;;LION;49;14500;7200;224;4;97;100;8400;;4155;4156;1;12993;26.94;28.04;30,7;BCS1388054;1;1
009726;22.02.2021;17:31:46;Normalcharge  ;04.12.2018;FEY;;LION;49;14500;7200;192;5;47;49;8400;3000;3648;3648;1;12998;26.24;26.24;31,6;BCS1388054;1;18
009726;22.02.2021;23:06:28;Stop          ;04.12.2018;FEY;;LION;49;14500;7200;224;5;98;100;8400;;4156;4156;1;12998;26.54;27.54;30,6;BCS1388054;1;18
009726;06.04.2021;08:39:10;Normalcharge  ;04.12.2018;FEY;;LION;49;14500;7200;224;5;97;99;8400;;4128;4127;1;13015;21.74;26.04;28,1;BCS1388054;5;15
009726;06.04.2021;08:39:58;Stop          ;04.12.2018;FEY;;LION;49;14500;7200;224;5;97;99;8400;;4128;4128;1;13014;21.84;26.34;28,4;BCS1388054;5;15
009726;08.04.2021;07:58:30;Normalcharge  ;04.12.2018;FEY;;LION;49;14500;7200;224;5;96;99;8400;;4127;4127;1;13016;25.44;26.24;26,4;BCS1388054;5;15
009726;08.04.2021;07:59:28;Stop          ;04.12.2018;FEY;;LION;49;14500;7200;224;5;96;99;8400;;4127;4127;1;13015;25.44;26.64;26,7;BCS1388054;5;15
009726;08.04.2021;10:36:12;Normalcharge  ;04.12.2018;FEY;;LION;49;14500;7200;224;5;96;99;8400;;4127;4127;1;13014;25.64;27.04;28,6;BCS1388054;5;15
009726;08.04.2021;10:37:06;Stop          ;04.12.2018;FEY;;LION;49;14500;7200;224;5;96;99;8400;;4127;4127;1;13013;25.64;27.44;29,0;BCS1388054;5;15
009726;18.04.2021;08:34:16;Normalcharge  ;04.12.2018;FEY;;LION;49;14500;7200;224;5;96;99;8400;;4123;4123;1;13014;26.34;27.84;28,1;BCS1388054;5;15
009726;18.04.2021;08:34:27;Stop          ;04.12.2018;FEY;;LION;49;14500;7200;224;5;96;99;8400;;4123;4123;1;13014;26.34;27.84;28,2;BCS1388054;5;15
009726;04.08.2021;07:24:41;Normalcharge  ;04.12.2018;FEY;;LION;49;14500;7200;192;5;94;96;8400;;4093;4092;1;13010;30.44;31.64;31,5;BCS1388054;5;15
009726;04.08.2021;07:25:23;Stop          ;04.12.2018;FEY;;LION;49;14500;7200;192;5;94;96;8400;;4092;4092;1;13010;30.44;32.04;31,6;BCS1388054;5;15
009726;22.08.2021;11:37:17;Normalcharge  ;04.12.2018;FEY;;LION;49;14500;7200;192;5;93;95;8400;3000;4088;4088;1;12995;23.14;28.84;31,9;BCS1388054;6;1
009726;22.08.2021;11:37:57;Stop          ;04.12.2018;FEY;;LION;49;14500;7200;128;5;93;95;8400;3000;4119;4107;1;12882;23.24;30.24;32,0;BCS1388054;6;1
009726;12.10.2021;12:15:20;Normalcharge  ;04.12.2018;FEY;;LION;49;14500;7200;192;5;92;94;8400;3000;4075;4075;1;12992;24.24;26.14;27,9;BCS1388054;1;11
009726;12.10.2021;12:15:34;Stop          ;04.12.2018;FEY;;LION;49;14500;7200;192;5;92;94;8400;3000;4075;4075;1;12977;24.24;26.74;27,9;BCS1388054;1;11
009726;14.10.2021;12:40:07;Normalcharge  ;04.12.2018;FEY;;LION;49;14500;7200;192;5;91;93;8400;3000;4075;4075;1;12994;25.14;26.64;27,9;BCS1388054;4;3
009726;14.10.2021;12:41:43;Stop          ;04.12.2018;FEY;;LION;49;14500;7200;128;5;92;94;8400;3000;4143;4116;1;12663;25.24;30.04;28,4;BCS1388054;4;3
009726;28.12.2021;09:01:33;Normalcharge  ;04.12.2018;FEY;;LION;49;14500;7200;192;5;80;82;8400;3000;3947;3947;1;13003;23.94;23.44;25,4;BCS1388054;5;6
009726;28.12.2021;09:02:46;Stop          ;04.12.2018;FEY;;LION;49;14500;7200;128;5;81;82;8400;3000;4046;3998;1;12663;24.04;25.44;26,0;BCS1388054;5;6
009726;14.03.2022;10:33:57;Normalcharge  ;04.12.2018;FEY;;LION;49;14500;7200;192;5;46;47;8400;3000;3630;3630;1;13003;24.44;24.64;25,4;BCS1388054;4;15
009726;14.03.2022;10:38:19;Stop          ;04.12.2018;FEY;;LION;49;14500;7200;128;5;47;48;8400;3000;3730;3680;1;12591;24.74;31.24;28,1;BCS1388054;4;15
009726;17.05.2022;08:54:36;Normalcharge  ;04.12.2018;FEY;;LION;49;14500;7200;192;5;46;47;8400;3000;3627;3626;1;13024;28.64;29.34;31,0;BCS1388054;7;18
009726;17.05.2022;13:41:52;Stop          ;04.12.2018;FEY;;LION;49;14500;7200;128;5;98;100;8400;3000;4181;4167;1;12941;32.54;36.04;34,0;BCS1388054;7;18

File: 009728.txt
Serialnumber ; Date ; Time ; Action ; Date of Manufacture ; Manufacturer ; Battery Name ; Device-Chemistry ; Specification-Info ; Design-Capacity [mAh] ; Design-Voltage [mV] ; Battery Status ; Cycle Count ; SOC [%] ; Relativ SOC[%] ; Desired Voltage [mV]; Desired Current [mA]; Cell Voltage 1 [mV] ; Cell Voltage 2 [mV] ; Max_Error [%] ; Busvoltage[mV] ; Battery Temperature [°C] ; Charger Temperature [°C] ; Batterysystem ; Case ; PLace
009728;07.12.2020;04:14:17;Cycle         ;04.12.2018;FEY;;LION;49;14500;7200;224;2;98;99;8400;;4124;4125;1;13001;26.04;27.14;30,3;BCS1388054;1;17
009728;08.12.2020;16:19:38;Stop          ;04.12.2018;FEY;;LION;49;14500;7200;224;4;97;100;8400;;4153;4156;1;13000;27.64;28.44;31,9;BCS1388054;1;17
009728;03.03.2021;08:17:35;Normalcharge  ;04.12.2018;FEY;;LION;49;14500;7200;192;4;72;74;8400;3000;3885;3886;1;13014;23.54;23.74;23,6;BCS1388054;5;16
009728;03.03.2021;11:26:36;Stop          ;04.12.2018;FEY;;LION;49;14500;7200;224;4;97;100;8400;;4161;4163;1;13009;29.34;29.84;31,5;BCS1388054;5;16
009728;06.04.2021;08:38:46;Normalcharge  ;04.12.2018;FEY;;LION;49;14500;7200;224;4;96;99;8400;;4133;4134;1;13012;21.04;25.04;28,1;BCS1388054;2;16
009728;06.04.2021;08:39:36;Stop          ;04.12.2018;FEY;;LION;49;14500;7200;224;4;96;99;8400;;4133;4134;1;13009;21.04;25.34;28,2;BCS1388054;2;16
009728;08.04.2021;07:57:57;Normalcharge  ;04.12.2018;FEY;;LION;49;14500;7200;224;4;96;99;8400;;4132;4134;1;13012;25.64;25.24;26,3;BCS1388054;2;16
009728;08.04.2021;07:59:45;Stop          ;04.12.2018;FEY;;LION;49;14500;7200;224;4;96;99;8400;;4132;4134;1;13010;25.64;26.04;26,8;BCS1388054;2;16
009728;08.04.2021;10:35:00;Normalcharge  ;04.12.2018;FEY;;LION;49;14500;7200;224;4;96;99;8400;;4132;4134;1;13012;26.04;25.64;28,1;BCS1388054;2;16
009728;08.04.2021;10:36:53;Stop          ;04.12.2018;FEY;;LION;49;14500;7200;224;4;96;99;8400;;4132;4134;1;13008;26.14;26.64;28,9;BCS1388054;2;16
009728;18.04.2021;08:33:36;Normalcharge  ;04.12.2018;FEY;;LION;49;14500;7200;224;4;95;99;8400;;4128;4130;1;13010;26.54;26.64;27,7;BCS1388054;2;16
009728;18.04.2021;08:33:44;Stop          ;04.12.2018;FEY;;LION;49;14500;7200;224;4;95;99;8400;;4128;4130;1;13010;26.54;26.74;27,8;BCS1388054;2;16
009728;04.08.2021;07:24:55;Normalcharge  ;04.12.2018;FEY;;LION;49;14500;7200;192;4;93;96;8400;;4095;4096;1;13001;30.84;31.04;31,5;BCS1388054;2;16
009728;04.08.2021;07:25:47;Stop          ;04.12.2018;FEY;;LION;49;14500;7200;192;4;93;96;8400;;4095;4096;1;13000;30.84;31.34;31,9;BCS1388054;2;16
009728;22.08.2021;11:08:09;Normalcharge  ;04.12.2018;FEY;;LION;49;14500;7200;192;4;67;70;8400;3000;3845;3847;1;12991;23.74;28.64;32,1;BCS1388054;5;13
009728;22.08.2021;11:08:42;Stop          ;04.12.2018;FEY;;LION;49;14500;7200;128;4;67;70;8400;3000;3870;3858;1;12835;23.74;29.94;32,5;BCS1388054;5;13

File: 009729.txt
Serialnumber ; Date ; Time ; Action ; Date of Manufacture ; Manufacturer ; Battery Name ; Device-Chemistry ; Specification-Info ; Design-Capacity [mAh] ; Design-Voltage [mV] ; Battery Status ; Cycle Count ; SOC [%] ; Relativ SOC[%] ; Desired Voltage [mV]; Desired Current [mA]; Cell Voltage 1 [mV] ; Cell Voltage 2 [mV] ; Max_Error [%] ; Busvoltage[mV] ; Battery Temperature [°C] ; Charger Temperature [°C] ; Batterysystem ; Case ; PLace
009729;07.12.2020;04:14:17;Cycle         ;04.12.2018;FEY;;LION;49;14500;7200;16576;2;97;100;;;4155;4156;1;12990;25.94;27.74;30,3;BCS1388054;1;9
009729;08.12.2020;16:19:38;Stop          ;04.12.2018;FEY;;LION;49;14500;7200;16576;2;97;100;;;4152;4153;1;12989;27.74;28.94;31,9;BCS1388054;1;9
009729;12.01.2021;04:17:47;Charge to 90% ;04.12.2018;FEY;;LION;49;14500;7200;16576;2;96;98;;;4137;4138;1;13020;23.34;22.74;23,8;BCS1388054;7;15
009729;12.01.2021;04:57:20;Stop          ;04.12.2018;FEY;;LION;49;14500;7200;192;2;89;90;8400;3000;4042;4043;1;13016;26.94;31.54;31,5;BCS1388054;7;15
009729;12.01.2021;05:22:01;Cycle         ;04.12.2018;FEY;;LION;49;14500;7200;192;2;89;90;8400;3000;4056;4057;1;13016;27.04;27.14;30,4;BCS1388054;7;15
009729;13.01.2021;08:19:29;Stop          ;04.12.2018;FEY;;LION;49;14500;7200;224;3;97;100;8400;;4155;4158;1;13016;26.94;27.04;30,7;BCS1388054;7;15
009729;21.02.2021;13:44:56;Normalcharge  ;04.12.2018;FEY;;LION;49;14500;7200;192;3;93;96;8400;3000;4096;4097;1;13013;23.14;23.24;27,7;BCS1388054;5;2
009729;21.02.2021;19:31:36;Stop          ;04.12.2018;FEY;;LION;49;14500;7200;224;3;97;100;8400;;4149;4153;1;13009;27.34;29.24;30,6;BCS1388054;5;2
009729;06.04.2021;08:39:03;Normalcharge  ;04.12.2018;FEY;;LION;49;14500;7200;224;3;96;99;8400;;4128;4131;1;13003;21.04;24.84;28,1;BCS1388054;4;15
009729;06.04.2021;08:39:53;Stop          ;04.12.2018;FEY;;LION;49;14500;7200;224;3;96;99;8400;;4128;4131;1;13002;21.04;25.14;28,4;BCS1388054;4;15
009729;08.04.2021;07:58:12;Normalcharge  ;04.12.2018;FEY;;LION;49;14500;7200;224;3;95;99;8400;;4128;4130;1;13007;25.54;17.74;26,3;BCS1388054;4;15
009729;08.04.2021;07:59:34;Stop          ;04.12.2018;FEY;;LION;49;14500;7200;224;3;95;99;8400;;4128;4130;1;12989;25.54;25.64;26,7;BCS1388054;4;15
009729;08.04.2021;10:36:07;Normalcharge  ;04.12.2018;FEY;;LION;49;14500;7200;224;3;95;99;8400;;4128;4130;1;13004;25.74;25.74;28,5;BCS1388054;4;15
009729;08.04.2021;10:37:03;Stop          ;04.12.2018;FEY;;LION;49;14500;7200;224;3;95;99;8400;;4128;4130;1;12981;25.74;26.24;29,0;BCS1388054;4;15
009729;18.04.2021;08:34:04;Normalcharge  ;04.12.2018;FEY;;LION;49;14500;7200;224;3;95;99;8400;;4124;4126;1;13004;26.44;26.64;27,9;BCS1388054;4;15
009729;18.04.2021;08:34:10;Stop          ;04.12.2018;FEY;;LION;49;14500;7200;224;3;95;99;8400;;4124;4126;1;13003;26.44;26.64;28,1;BCS1388054;4;15
009729;04.08.2021;07:24:46;Normalcharge  ;04.12.2018;FEY;;LION;49;14500;7200;192;3;93;96;8400;;4093;4094;1;13000;30.64;30.64;31,5;BCS1388054;4;15
009729;04.08.2021;07:25:30;Stop          ;04.12.2018;FEY;;LION;49;14500;7200;192;3;93;96;8400;;4093;4094;1;12977;30.64;30.94;31,7;BCS1388054;4;15
009729;22.08.2021;11:37:13;Normalcharge  ;04.12.2018;FEY;;LION;49;14500;7200;192;3;93;96;8400;;4089;4091;1;13031;22.74;28.74;31,9;BCS1388054;7;14
009729;22.08.2021;11:37:48;Stop          ;04.12.2018;FEY;;LION;49;14500;7200;192;3;93;96;8400;;4089;4091;1;13004;22.84;28.94;31,9;BCS1388054;7;14

File: 009730.txt
Serialnumber ; Date ; Time ; Action ; Date of Manufacture ; Manufacturer ; Battery Name ; Device-Chemistry ; Specification-Info ; Design-Capacity [mAh] ; Design-Voltage [mV] ; Battery Status ; Cycle Count ; SOC [%] ; Relativ SOC[%] ; Desired Voltage [mV]; Desired Current [mA]; Cell Voltage 1 [mV] ; Cell Voltage 2 [mV] ; Max_Error [%] ; Busvoltage[mV] ; Battery Temperature [°C] ; Charger Temperature [°C] ; Batterysystem ; Case ; PLace
009730;07.02.2021;08:47:00;Normalcharge  ;04.12.2018;FEY;;LION;49;14500;7200;192;2;91;92;8400;3000;4073;4074;1;13000;23.34;25.54;29,2;BCS1388054;4;15
009730;07.02.2021;11:52:20;Stop          ;04.12.2018;FEY;;LION;49;14500;7200;224;2;99;100;8400;;4153;4154;1;13001;25.74;27.14;29,7;BCS1388054;4;15
009730;03.03.2021;08:17:21;Normalcharge  ;04.12.2018;FEY;;LION;49;14500;7200;192;2;91;94;8400;3000;4079;4080;1;13010;23.04;22.64;23,5;BCS1388054;3;4
009730;04.03.2021;07:53:39;Stop           ;04.12.2018;FEY;;LION;49;14500;7200;224;2;98;100;8400;;4149;4150;1;13004;26.34;27.14;31,5;BCS1388054;3;4
009730;04.04.2021;11:49:55;Normalcharge  ;04.12.2018;FEY;;LION;49;14500;7200;192;3;52;53;8400;3000;3681;3680;1;13028;24.74;25.74;27,5;BCS1388054;7;2
009730;04.04.2021;11:51:17;Stop          ;04.12.2018;FEY;;LION;49;14500;7200;128;3;52;54;8400;3000;3769;3719;1;12764;24.74;28.94;28,4;BCS1388054;7;2
009730;05.04.2021;09:38:11;Charge to 60% ;04.12.2018;FEY;;LION;49;14500;7200;192;3;52;54;8400;3000;3683;3682;1;13018;24.84;25.84;26,3;BCS1388054;4;4
009730;05.04.2021;10:13:52;Stop          ;04.12.2018;FEY;;LION;49;14500;7200;192;3;57;60;8400;3000;3756;3751;1;13013;27.34;28.74;32,1;BCS1388054;4;4
009730;22.08.2021;11:37:30;Normalcharge  ;04.12.2018;FEY;;LION;49;14500;7200;192;3;53;54;8400;3000;3671;3671;1;12996;20.94;27.64;31,9;BCS1388054;3;16
009730;22.08.2021;11:38:19;Stop           ;04.12.2018;FEY;;LION;49;14500;7200;128;3;53;55;8400;3000;3758;3710;1;12550;21.04;29.64;32,1;BCS1388054;3;16
009730;25.08.2021;08:15:15;Ladung auf 60% ;04.12.2018;FEY;;LION;49;14500;7200;192;3;53;55;8400;3000;3674;3673;1;12997;30.34;30.94;33,4;BCS1388054;3;16
009730;25.08.2021;08:40:44;Stop           ;04.12.2018;FEY;;LION;49;14500;7200;192;3;58;60;8400;3000;3733;3731;1;12995;32.44;35.24;36,1;BCS1388054;3;16