Folder: Battery_sort_V2/reader/Batterieverzeichnis

Note: reader/Batterieverzeichnis/009510.txt
009510;29.11.2020;04:42:29;Cycle         ;04.12.2018;FEY;;LION;49;14500;7200;224;2;98;100;8400;;4138;4138;1;13003;23.24;21.44;27,5;BCS1388054;6;14
009510;30.11.2020;09:46:20;Stop          ;04.12.2018;FEY;;LION;49;14500;7200;224;3;96;100;8400;;4154;4154;1;12997;28.04;30.14;30,7;BCS1388054;6;14
009510;07.02.2021;08:46:42;Normalcharge  ;04.12.2018;FEY;;LION;49;14500;7200;192;3;95;98;8400;;4120;4119;1;12995;23.74;26.94;29,2;BCS1388054;1;8
009510;07.02.2021;11:52:07;Stop          ;04.12.2018;FEY;;LION;49;14500;7200;192;3;95;98;8400;;4120;4120;1;12996;25.94;28.04;29,7;BCS1388054;1;8
009510;03.03.2021;08:17:08;Normalcharge  ;04.12.2018;FEY;;LION;49;14500;7200;192;3;94;97;8400;;4106;4105;1;12996;23.24;24.04;23,5;BCS1388054;1;12
009510;04.03.2021;07:53:51;Stop          ;04.12.2018;FEY;;LION;49;14500;7200;192;3;94;97;8400;;4105;4104;1;12991;26.14;27.14;31,6;BCS1388054;1;12
009510;04.04.2021;11:50:28;Normalcharge  ;04.12.2018;FEY;;LION;49;14500;7200;192;4;52;54;8400;3000;3687;3686;1;13004;25.14;25.94;27,9;BCS1388054;3;7
009510;04.04.2021;11:51:43;Stop           ;04.12.2018;FEY;;LION;49;14500;7200;128;4;52;54;8400;3000;3773;3726;1;12796;25.14;28.64;28,6;BCS1388054;3;7
009510;05.04.2021;09:38:00;Ladung auf 60% ;04.12.2018;FEY;;LION;49;14500;7200;192;4;52;54;8400;3000;3689;3689;1;13014;25.14;25.74;26,3;BCS1388054;3;15
009510;05.04.2021;10:06:07;Stop           ;04.12.2018;FEY;;LION;49;14500;7200;192;4;57;60;8400;3000;3758;3760;1;13013;27.54;31.34;31,4;BCS1388054;3;15
009510;22.08.2021;11:08:13;Normalcharge  ;04.12.2018;FEY;;LION;49;14500;7200;192;4;53;55;8400;3000;3701;3700;1;12996;29.94;30.04;32,2;BCS1388054;6;1
009510;22.08.2021;11:08:46;Stop          ;04.12.2018;FEY;;LION;49;14500;7200;128;4;53;55;8400;3000;3723;3710;1;12827;29.94;31.14;32,5;BCS1388054;6;1
009510;25.08.2021;08:15:02;Charge to 60% ;04.12.2018;FEY;;LION;49;14500;7200;192;4;53;55;8400;3000;3701;3700;1;12998;30.44;31.44;33,2;BCS1388054;5;12
009510;25.08.2021;13:03:31;Stop          ;04.12.2018;FEY;;LION;49;14500;7200;192;4;57;60;8400;3000;3752;3752;1;12995;32.74;33.54;36,6;BCS1388054;5;12
009510;01.11.2021;10:27:50;Normalcharge  ;04.12.2018;FEY;;LION;49;14500;7200;192;4;55;57;8400;3000;3722;3721;1;12993;26.04;26.44;27,8;BCS1388054;3;6
009510;01.11.2021;10:29:05;Stop           ;04.12.2018;FEY;;LION;49;14500;7200;128;4;55;57;8400;3000;3812;3765;1;12561;26.04;28.74;28,5;BCS1388054;3;6

Note: reader/Batterieverzeichnis/009557.txt
Serialnumber ; Date ; Time ; Action ; Date of Manufacture ; Manufacturer ; Battery Name ; Device-Chemistry ; Specification-Info ; Design-Capacity [mAh] ; Design-Voltage [mV] ; Battery Status ; Cycle Count ; SOC [%] ; Relativ SOC[%] ; Desired Voltage [mV]; Desired Current [mA]; Cell Voltage 1 [mV] ; Cell Voltage 2 [mV] ; Max_Error [%] ; Busvoltage[mV] ; Battery Temperature [°C] ; Charger Temperature [°C] ; Batterysystem ; Case ; PLace
009557;10.12.2019;15:28:53;Charge to 30% ;04.12.2018;FEY;;LION;49;14500;7200;224;52;93;100;8400;;4129;4130;1;13003;22.84;25.34;27,1;BCS1388054;4;2

Note: reader/Batterieverzeichnis/009568.txt
009568;29.11.2020;04:36:38;Cycle         ;04.12.2018;FEY;;LION;49;14500;7200;16576;2;100;99;;;4167;4168;1;12997;23.24;23.74;27,9;BCS1388054;4;3
009568;12.01.2021;04:17:22;Charge to 90% ;04.12.2018;FEY;;LION;49;14500;7200;16576;2;99;98;;;4139;4140;1;13021;23.34;23.64;23,5;BCS1388054;2;9
009568;12.01.2021;04:54:21;Stop          ;04.12.2018;FEY;;LION;49;14500;7200;192;2;92;90;8400;3000;4040;4039;1;13013;26.84;33.44;31,9;BCS1388054;2;9
009568;12.01.2021;05:21:40;Cycle         ;04.12.2018;FEY;;LION;49;14500;7200;192;2;92;90;8400;3000;4064;4064;1;13016;27.24;28.24;30,6;BCS1388054;2;9
009568;13.01.2021;08:20:19;Stop          ;04.12.2018;FEY;;LION;49;14500;7200;224;4;98;100;8400;;4156;4157;1;13015;27.34;28.14;30,8;BCS1388054;2;9
009568;22.02.2021;17:31:46;Normalcharge  ;04.12.2018;FEY;;LION;49;14500;7200;192;4;56;57;8400;3000;3722;3723;1;13006;25.94;27.04;31,6;BCS1388054;1;6
009568;22.02.2021;23:06:28;Stop          ;04.12.2018;FEY;;LION;49;14500;7200;224;4;99;100;8400;;4153;4152;1;13006;26.44;27.04;30,6;BCS1388054;1;6
009568;06.04.2021;08:39:10;Normalcharge  ;04.12.2018;FEY;;LION;49;14500;7200;224;4;97;99;8400;;4126;4126;1;13008;21.74;25.34;28,1;BCS1388054;5;16
009568;06.04.2021;08:39:58;Stop          ;04.12.2018;FEY;;LION;49;14500;7200;224;4;97;99;8400;;4126;4126;1;13008;21.74;25.64;28,4;BCS1388054;5;16
009568;08.04.2021;07:58:30;Normalcharge  ;04.12.2018;FEY;;LION;49;14500;7200;224;4;97;99;8400;;4126;4126;1;13014;25.44;25.54;26,4;BCS1388054;5;16
009568;08.04.2021;07:59:28;Stop          ;04.12.2018;FEY;;LION;49;14500;7200;224;4;97;99;8400;;4126;4126;1;13012;25.44;26.04;26,7;BCS1388054;5;16
009568;08.04.2021;10:36:12;Normalcharge  ;04.12.2018;FEY;;LION;49;14500;7200;224;4;97;99;8400;;4126;4126;1;13012;25.64;26.44;28,6;BCS1388054;5;16
009568;08.04.2021;10:37:06;Stop          ;04.12.2018;FEY;;LION;49;14500;7200;224;4;97;99;8400;;4126;4126;1;13011;25.64;26.64;29,0;BCS1388054;5;16
009568;18.04.2021;08:34:16;Normalcharge  ;04.12.2018;FEY;;LION;49;14500;7200;224;4;97;99;8400;;4122;4122;1;13011;26.34;27.14;28,1;BCS1388054;5;16
009568;18.04.2021;08:34:27;Stop          ;04.12.2018;FEY;;LION;49;14500;7200;224;4;97;99;8400;;4122;4122;1;13010;26.34;27.24;28,2;BCS1388054;5;16
009568;04.08.2021;07:24:41;Normalcharge  ;04.12.2018;FEY;;LION;49;14500;7200;192;4;95;96;8400;;4091;4091;1;13009;30.44;31.04;31,5;BCS1388054;5;16
009568;04.08.2021;07:25:23;Stop          ;04.12.2018;FEY;;LION;49;14500;7200;192;4;95;96;8400;;4091;4091;1;13007;30.44;31.34;31,6;BCS1388054;5;16
009568;22.08.2021;11:37:17;Normalcharge  ;04.12.2018;FEY;;LION;49;14500;7200;192;4;93;95;8400;3000;4086;4086;1;13009;22.84;29.34;31,9;BCS1388054;6;15
009568;22.08.2021;11:37:57;Stop          ;04.12.2018;FEY;;LION;49;14500;7200;128;4;93;95;8400;3000;4116;4104;1;12853;22.94;30.94;32,0;BCS1388054;6;15
009568;14.10.2021;12:40:18;Normalcharge  ;04.12.2018;FEY;;LION;49;14500;7200;192;4;88;90;8400;3000;4034;4033;1;12992;24.04;26.54;28,1;BCS1388054;6;18
009568;14.10.2021;12:41:59;Stop          ;04.12.2018;FEY;;LION;4

Note: reader/Batterieverzeichnis/009582.txt
Serialnumber ; Date ; Time ; Action ; Date of Manufacture ; Manufacturer ; Battery Name ; Device-Chemistry ; Specification-Info ; Design-Capacity [mAh] ; Design-Voltage [mV] ; Battery Status ; Cycle Count ; SOC [%] ; Relativ SOC[%] ; Desired Voltage [mV]; Desired Current [mA]; Cell Voltage 1 [mV] ; Cell Voltage 2 [mV] ; Max_Error [%] ; Busvoltage[mV] ; Battery Temperature [°C] ; Charger Temperature [°C] ; Batterysystem ; Case ; PLace
009582;12.01.2021;04:17:33;Charge to 90% ;03.12.2018;FEY;;LION;49;14500;7200;192;3;97;97;8400;;4128;4127;1;13000;22.64;24.04;23,6;BCS1388054;4;3

File: 001029.txt
Serialnumber ; Date ; Time ; Action ; Date of Manufacture ; Manufacturer ; Battery Name ; Device-Chemistry ; Specification-Info ; Design-Capacity [mAh] ; Design-Voltage [mV] ; Battery Status ; Cycle Count ; SOC [%] ; Relativ SOC[%] ; Desired Voltage [mV]; Desired Current [mA]; Cell Voltage 1 [mV] ; Cell Voltage 2 [mV] ; Max_Error [%] ; Busvoltage[mV] ; Battery Temperature [°C] ; Charger Temperature [°C] ; Batterysystem ; Case ; PLace
001029;10.12.2019;15:29:15;Charge to 30% ;28.11.2017;FEY;;LION;49;14500;7200;224;27;92;99;8400;;4120;4120;1;13040;22.34;24.44;27,1;BCS1388054;7;14
001029;10.12.2019;20:46:56;Stop          ;28.11.2017;FEY;;LION;49;14500;7200;192;28;28;30;8400;3000;3555;3556;1;13037;33.04;32.94;33,5;BCS1388054;7;14
001029;11.12.2019;08:49:12;Fastcharge    ;28.11.2017;FEY;;LION;49;14500;7200;192;28;28;30;8400;3000;3562;3562;1;13036;25.84;27.34;31,9;BCS1388054;7;14
001029;11.12.2019;13:38:42;Stop          ;28.11.2017;FEY;;LION;49;14500;7200;224;28;94;100;8400;;4160;4160;1;13037;30.04;29.74;32,7;BCS1388054;7;14
001029;11.12.2019;15:46:56;Charge to 10% ;28.11.2017;FEY;;LION;49;14500;7200;224;28;95;100;8400;;4153;4153;1;13037;26.84;27.64;31,2;BCS1388054;7;14
001029;11.12.2019;22:51:50;Stop          ;28.11.2017;FEY;;LION;49;14500;7200;192;29;10;10;8400;3000;3354;3355;1;13036;33.64;32.44;33,0;BCS1388054;7;14
001029;12.12.2019;08:45:27;Normalcharge  ;28.11.2017;FEY;;LION;49;14500;7200;192;29;9;10;8400;3000;3361;3362;1;13036;26.14;27.54;31,7;BCS1388054;7;14
001029;12.12.2019;16:41:08;Stop          ;28.11.2017;FEY;;LION;49;14500;7200;224;29;94;100;8400;;4160;4160;1;13037;29.04;29.04;31,6;BCS1388054;7;14
001029;13.12.2019;10:48:13;Charge to 10% ;28.11.2017;FEY;;LION;49;14500;7200;224;29;94;100;8400;;4150;4149;1;13038;26.14;27.54;32,0;BCS1388054;7;14
001029;13.12.2019;13:48:48;Stop          ;28.11.2017;FEY;;LION;49;14500;7200;192;29;57;60;8400;3000;3675;3727;1;13543;34.34;41.94;36,8;BCS1388054;7;14
001029;16.12.2019;07:43:34;Charge to 10% ;28.11.2017;FEY;;LION;49;14500;7200;192;29;58;62;8400;3000;3779;3779;1;13031;22.64;26.64;31,7;BCS1388054;7;13
001029;16.12.2019;11:52:34;Stop          ;28.11.2017;FEY;;LION;49;14500;7200;192;30;10;10;8400;3000;3354;3356;1;13029;32.14;32.34;34,7;BCS1388054;7;13
001029;16.12.2019;14:44:25;Charge to 90% ;28.11.2017;FEY;;LION;49;14500;7200;192;30;9;10;8400;3000;3359;3360;1;13029;28.64;29.54;31,7;BCS1388054;7;13
001029;16.12.2019;20:53:59;Stop          ;28.11.2017;FEY;;LION;49;14500;7200;192;30;82;90;8400;3000;4030;4029;1;13031;30.84;30.74;32,1;BCS1388054;7;13
001029;17.12.2019;08:38:02;Fastcharge    ;28.11.2017;FEY;;LION;49;14500;7200;192;30;83;90;8400;3000;4024;4022;1;13030;25.94;27.54;31,6;BCS1388054;7;13
001029;17.12.2019;10:36:25;Stop          ;28.11.2017;FEY;;LION;49;14500;7200;224;30;92;100;8400;;4163;4161;1;13030;27.84;30.04;31,5;BCS1388054;7;13
001029;17.12.2019;13:38:44;Charge to 10% ;28.11.2017;FEY;;LION;49;14500;7200;224;30;92;100;8400;;4151;4148;1;13030;26.34;27.74;30,8;BCS1388054;7;13
001029;17.12.2019;20:42:03;Stop          ;28.11.2017;FEY;;LION;49;14500;7200;192;31;10;10;8400;3000;3357;3358;1;13030;32.94;32.24;32,6;BCS1388054;7;13
001029;18.12.2019;08:31:43;Fastcharge    ;28.11.2017;FEY;;LION;49;14500;7200;192;31;9;10;8400;3000;3365;3365;1;13029;26.04;27.74;31,6;BCS1388054;7;13
001029;18.12.2019;14:30:48;Stop          ;28.11.2017;FEY;;LION;49;14500;7200;224;31;91;100;8400;;4159;4155;1;13029;29.54;29.74;31,6;BCS1388054;7;13
001029;19.12.2019;08:24:17;Charge to 60% ;28.11.2017;FEY;;LION;49;14500;7200;224;31;92;100;8400;;4149;4145;1;13030;26.04;27.54;31,6;BCS1388054;7;13
001029;19.12.2019;11:28:26;Stop          ;28.11.2017;FEY;;LION;49;14500;7200;192;32;56;60;8400;3000;3770;3768;1;13029;33.34;34.74;35,1;BCS1388054;7;13
001029;19.12.2019;12:16:57;Cycle         ;28.11.2017;FEY;;LION;49;14500;7200;192;32;56;60;8400;3000;3780;3777;1;13030;29.74;29.74;32,7;BCS1388054;7;13
001029;20.12.2019;17:22:28;Stop          ;28.11.2017;FEY;;LION;49;14500;7200;224;33;93;100;8400;;4152;4151;1;13030;26.34;27.94;31,9;BCS1388054;7;13
001029;06.01.2020;06:35:02;Charge to 60% ;28.11.2017;FEY;;LION;49;14500;7200;224;33;91;99;8400;;4122;4121;1;13031;26.14;27.74;31,9;BCS1388054;7;13
001029;06.01.2020;09:29:52;Stop          ;28.11.2017;FEY;;LION;49;14500;7200;192;33;56;60;8400;3000;3761;3762;1;13029;32.54;34.34;34,0;BCS1388054;7;13
001029;06.01.2020;09:50:50;Fastcharge    ;28.11.2017;FEY;;LION;49;14500;7200;192;33;56;60;8400;3000;3771;3771;1;13030;30.94;30.34;32,7;BCS1388054;7;13
001029;06.01.2020;13:05:11;Stop          ;28.11.2017;FEY;;LION;49;14500;7200;224;33;93;100;8400;;4161;4160;1;13029;29.14;30.34;32,4;BCS1388054;7;13

File: 001070.txt
Serialnumber ; Date ; Time ; Action ; Date of Manufacture ; Manufacturer ; Battery Name ; Device-Chemistry ; Specification-Info ; Design-Capacity [mAh] ; Design-Voltage [mV] ; Battery Status ; Cycle Count ; SOC [%] ; Relativ SOC[%] ; Desired Voltage [mV]; Desired Current [mA]; Cell Voltage 1 [mV] ; Cell Voltage 2 [mV] ; Max_Error [%] ; Busvoltage[mV] ; Battery Temperature [°C] ; Charger Temperature [°C] ; Batterysystem ; Case ; PLace
001070;10.12.2019;15:29:15;Charge to 30% ;15.02.2018;FEY;;LION;49;14500;7200;224;21;93;99;8400;;4124;4122;1;13032;22.14;24.24;27,1;BCS1388054;7;4
001070;10.12.2019;20:46:56;Stop          ;15.02.2018;FEY;;LION;49;14500;7200;192;22;29;30;8400;3000;3560;3557;1;13031;31.54;30.94;33,5;BCS1388054;7;4
001070;11.12.2019;08:49:12;Fastcharge    ;15.02.2018;FEY;;LION;49;14500;7200;192;22;29;30;8400;3000;3568;3565;1;13032;25.54;27.14;31,9;BCS1388054;7;4
001070;11.12.2019;13:38:42;Stop          ;15.02.2018;FEY;;LION;49;14500;7200;224;22;94;100;8400;;4162;4163;1;13032;28.54;28.84;32,7;BCS1388054;7;4
001070;11.12.2019;15:46:56;Charge to 10% ;15.02.2018;FEY;;LION;49;14500;7200;224;22;96;100;8400;;4155;4155;1;13032;26.24;27.34;31,2;BCS1388054;7;4
001070;11.12.2019;22:51:50;Stop          ;15.02.2018;FEY;;LION;49;14500;7200;192;23;10;10;8400;3000;3356;3352;1;13032;32.04;30.74;33,0;BCS1388054;7;4
001070;12.12.2019;08:45:27;Normalcharge  ;15.02.2018;FEY;;LION;49;14500;7200;192;23;9;9;8400;3000;3364;3361;1;13032;25.74;27.24;31,7;BCS1388054;7;4
001070;12.12.2019;16:41:08;Stop          ;15.02.2018;FEY;;LION;49;14500;7200;224;23;95;100;8400;;4161;4159;1;13031;27.94;28.24;31,6;BCS1388054;7;4
001070;13.12.2019;10:48:13;Charge to 10% ;15.02.2018;FEY;;LION;49;14500;7200;224;23;95;100;8400;;4150;4148;1;13032;25.84;27.34;32,0;BCS1388054;7;4
001070;13.12.2019;13:48:48;Stop          ;15.02.2018;FEY;;LION;49;14500;7200;192;24;58;61;8400;3000;3689;3732;1;13534;32.84;37.84;36,8;BCS1388054;7;4
001070;16.12.2019;07:43:34;Charge to 10% ;15.02.2018;FEY;;LION;49;14500;7200;192;24;60;63;8400;3000;3790;3785;1;13023;22.34;26.54;31,7;BCS1388054;7;7
001070;16.12.2019;11:52:34;Stop          ;15.02.2018;FEY;;LION;49;14500;7200;192;25;10;10;8400;3000;3358;3353;1;13021;31.84;32.04;34,7;BCS1388054;7;7
001070;16.12.2019;14:44:25;Charge to 90% ;15.02.2018;FEY;;LION;49;14500;7200;192;25;9;10;8400;3000;3363;3358;1;13022;28.34;29.34;31,7;BCS1388054;7;7
001070;16.12.2019;20:53:58;Stop          ;15.02.2018;FEY;;LION;49;14500;7200;192;25;83;90;8400;3000;4032;4029;1;13022;30.24;30.54;32,1;BCS1388054;7;7
001070;17.12.2019;08:38:01;Fastcharge    ;15.02.2018;FEY;;LION;49;14500;7200;192;25;84;90;8400;3000;4025;4021;1;13023;25.84;27.64;31,6;BCS1388054;7;7
001070;17.12.2019;10:36:25;Stop          ;15.02.2018;FEY;;LION;49;14500;7200;224;25;93;100;8400;;4161;4157;1;13023;27.44;28.74;31,5;BCS1388054;7;7
001070;17.12.2019;13:38:44;Charge to 10% ;15.02.2018;FEY;;LION;49;14500;7200;224;25;93;100;8400;;4154;4149;1;13022;26.14;27.74;30,8;BCS1388054;7;7
001070;17.12.2019;20:42:03;Stop          ;15.02.2018;FEY;;LION;49;14500;7200;192;26;10;10;8400;3000;3357;3352;1;13022;32.44;31.84;32,6;BCS1388054;7;7
001070;18.12.2019;08:31:43;Fastcharge    ;15.02.2018;FEY;;LION;49;14500;7200;192;26;9;9;8400;3000;3366;3361;1;13022;25.94;27.74;31,6;BCS1388054;7;7
001070;18.12.2019;14:30:48;Stop          ;15.02.2018;FEY;;LION;49;14500;7200;224;26;92;100;8400;;4163;4157;1;13022;28.94;29.54;31,6;BCS1388054;7;7
001070;19.12.2019;08:24:17;Charge to 60% ;15.02.2018;FEY;;LION;49;14500;7200;224;26;94;100;8400;;4152;4146;1;13022;25.84;27.74;31,6;BCS1388054;7;7
001070;19.12.2019;11:28:26;Stop          ;15.02.2018;FEY;;LION;49;14500;7200;192;26;57;60;8400;3000;3775;3766;1;13022;32.74;34.24;35,1;BCS1388054;7;7
001070;19.12.2019;12:16:57;Cycle         ;15.02.2018;FEY;;LION;49;14500;7200;192;26;57;60;8400;3000;3788;3779;1;13023;29.14;29.64;32,7;BCS1388054;7;7
001070;20.12.2019;17:22:28;Stop          ;15.02.2018;FEY;;LION;49;14500;7200;224;27;93;100;8400;;4155;4152;1;13022;26.14;27.94;31,9;BCS1388054;7;7
001070;06.01.2020;06:35:02;Charge to 60% ;15.02.2018;FEY;;LION;49;14500;7200;192;27;92;98;8400;;4125;4122;1;13023;26.04;27.74;31,9;BCS1388054;7;7
001070;06.01.2020;09:29:52;Stop          ;15.02.2018;FEY;;LION;49;14500;7200;192;28;56;60;8400;3000;3772;3766;1;13023;31.94;33.44;34,0;BCS1388054;7;7
001070;06.01.2020;09:50:50;Fastcharge    ;15.02.2018;FEY;;LION;49;14500;7200;192;28;56;60;8400;3000;3783;3777;1;13024;30.24;30.04;32,7;BCS1388054;7;7
001070;06.01.2020;13:05:11;Stop          ;15.02.2018;FEY;;LION;49;14500;7200;224;28;94;100;8400;;4161;4160;1;13023;28.74;29.64;32,4;BCS1388054;7;7

File: 001085.txt
Serialnumber ; Date ; Time ; Action ; Date of Manufacture ; Manufacturer ; Battery Name ; Device-Chemistry ; Specification-Info ; Design-Capacity [mAh] ; Design-Voltage [mV] ; Battery Status ; Cycle Count ; SOC [%] ; Relativ SOC[%] ; Desired Voltage [mV]; Desired Current [mA]; Cell Voltage 1 [mV] ; Cell Voltage 2 [mV] ; Max_Error [%] ; Busvoltage[mV] ; Battery Temperature [°C] ; Charger Temperature [°C] ; Batterysystem ; Case ; PLace
001085;10.12.2019;15:29:09;Charge to 30% ;15.02.2018;FEY;;LION;49;14500;7200;224;10;94;99;8400;;4123;4123;1;13022;22.54;25.04;27,1;BCS1388054;6;11
001085;10.12.2019;20:46:41;Stop          ;15.02.2018;FEY;;LION;49;14500;7200;192;11;29;30;8400;3000;3550;3550;1;13020;32.74;34.74;33,6;BCS1388054;6;11
001085;11.12.2019;08:49:03;Fastcharge    ;15.02.2018;FEY;;LION;49;14500;7200;192;11;29;30;8400;3000;3567;3568;1;13022;26.24;27.74;31,9;BCS1388054;6;11
001085;11.12.2019;13:39:30;Stop          ;15.02.2018;FEY;;LION;49;14500;7200;224;11;96;100;8400;;4164;4163;1;13020;29.54;29.54;32,5;BCS1388054;6;11
001085;11.12.2019;15:46:47;Charge to 10% ;15.02.2018;FEY;;LION;49;14500;7200;224;11;97;100;8400;;4157;4157;1;13022;26.94;27.84;31,4;BCS1388054;6;11
001085;11.12.2019;22:52:10;Stop          ;15.02.2018;FEY;;LION;49;14500;7200;192;12;10;10;8400;3000;3260;3311;1;13020;33.44;35.34;33,0;BCS1388054;6;11
001085;12.12.2019;08:45:18;Normalcharge  ;15.02.2018;FEY;;LION;49;14500;7200;192;12;9;9;8400;3000;3363;3364;1;13022;26.44;27.74;31,7;BCS1388054;6;11
001085;12.12.2019;16:41:29;Stop          ;15.02.2018;FEY;;LION;49;14500;7200;224;12;97;100;8400;;4163;4163;1;13021;28.84;28.94;31,5;BCS1388054;6;11
001085;13.12.2019;10:48:09;Charge to 10% ;15.02.2018;FEY;;LION;49;14500;7200;224;12;97;100;8400;;4152;4151;1;13022;26.44;28.04;32,0;BCS1388054;6;11
001085;13.12.2019;13:51:54;Stop          ;15.02.2018;FEY;;LION;49;14500;7200;192;13;59;61;8400;3000;3690;3739;1;13514;33.84;37.74;36,1;BCS1388054;6;11
001085;13.12.2019;13:53:13;Fastcharge    ;15.02.2018;FEY;;LION;49;14500;7200;192;13;59;61;8400;3000;3772;3773;1;13018;33.84;35.64;35,8;BCS1388054;6;11
001085;13.12.2019;13:53:19;Stop          ;15.02.2018;FEY;;LION;49;14500;7200;192;13;59;61;8400;3000;3772;3773;1;13010;33.84;35.44;35,8;BCS1388054;6;11
001085;13.12.2019;13:53:25;Normalcharge  ;15.02.2018;FEY;;LION;49;14500;7200;192;13;59;61;8400;3000;3772;3773;1;13018;33.84;35.44;35,8;BCS1388054;6;11
001085;13.12.2019;20:04:59;Stop          ;15.02.2018;FEY;;LION;49;14500;7200;224;13;97;100;8400;;4156;4156;1;13022;27.74;28.84;32,0;BCS1388054;6;11
001085;16.12.2019;07:43:27;Charge to 10% ;15.02.2018;FEY;;LION;49;14500;7200;224;13;97;100;8400;;4148;4148;1;13022;26.24;26.54;31,7;BCS1388054;6;11
001085;16.12.2019;14:43:10;Stop          ;15.02.2018;FEY;;LION;49;14500;7200;192;14;10;10;8400;3000;3345;3347;1;13023;31.34;32.94;31,7;BCS1388054;6;11
001085;16.12.2019;14:44:21;Charge to 90% ;15.02.2018;FEY;;LION;49;14500;7200;192;14;10;10;8400;3000;3352;3354;1;13023;31.34;30.64;31,9;BCS1388054;6;11
001085;16.12.2019;20:54:26;Stop          ;15.02.2018;FEY;;LION;49;14500;7200;128;14;86;90;8400;3000;4143;4098;1;13022;31.34;33.94;32,1;BCS1388054;6;11
001085;17.12.2019;08:37:57;Fastcharge    ;15.02.2018;FEY;;LION;49;14500;7200;192;14;86;90;8400;3000;4044;4045;1;13023;26.34;27.64;31,6;BCS1388054;6;11
001085;17.12.2019;13:38:40;Charge to 10% ;15.02.2018;FEY;;LION;49;14500;7200;224;14;97;100;8400;;4154;4156;1;13022;26.64;27.64;30,8;BCS1388054;6;11
001085;17.12.2019;20:41:41;Stop          ;15.02.2018;FEY;;LION;49;14500;7200;192;15;10;10;8400;3000;3345;3348;1;13021;33.34;34.54;32,6;BCS1388054;6;11
001085;18.12.2019;08:31:34;Fastcharge    ;15.02.2018;FEY;;LION;49;14500;7200;192;15;9;9;8400;3000;3364;3366;1;13022;26.44;27.64;31,6;BCS1388054;6;11
001085;18.12.2019;14:33:31;Stop          ;15.02.2018;FEY;;LION;49;14500;7200;224;15;96;100;8400;;4162;4166;1;13023;29.44;29.14;31,4;BCS1388054;6;11
001085;19.12.2019;08:24:06;Charge to 60% ;15.02.2018;FEY;;LION;49;14500;7200;224;15;97;100;8400;;4152;4155;1;13023;26.34;27.74;31,5;BCS1388054;6;11
001085;19.12.2019;11:34:24;Stop          ;15.02.2018;FEY;;LION;49;14500;7200;192;16;58;60;8400;3000;3771;3775;1;13022;33.04;32.14;33,5;BCS1388054;6;11
001085;19.12.2019;12:16:53;Cycle         ;15.02.2018;FEY;;LION;49;14500;7200;192;16;58;60;8400;3000;3782;3786;1;13023;29.84;29.64;32,7;BCS1388054;6;11
001085;20.12.2019;17:31:05;Stop          ;15.02.2018;FEY;;LION;49;14500;7200;224;17;95;100;8400;;4155;4154;1;13024;26.64;27.44;30,6;BCS1388054;6;11
001085;06.01.2020;06:34:58;Charge to 60% ;15.02.2018;FEY;;LION;49;14500;7200;192;17;94;98;8400;;4124;4123;1;13024;26.54;27.74;31,9;BCS1388054;6;11
001085;06.01.2020;09:30:42;Stop          ;15.02.2018;FEY;;LION;49;14500;7200;192;18;58;60;8400;3000;3760;3761;1;13022;32.44;34.24;33,7;BCS1388054;6;11
001085;06.01.2020;09:50:46;Fastcharge    ;15.02.2018;FEY;;LION;49;14500;7200;192;18;58;60;8400;3000;3780;3782;1;13023;30.84;30.24;32,7;BCS1388054;6;11
001085;06.01.2020;13:06:22;Stop          ;15.02.2018;FEY;;LION;49;14500;7200;224;18;96;100;8400;;4160;4160;1;13025;29.04;29.14;32,1;BCS1388054;6;11

File: 007594.txt
Serialnumber ; Date ; Time ; Action ; Date of Manufacture ; Manufacturer ; Battery Name ; Device-Chemistry ; Specification-Info ; Design-Capacity [mAh] ; Design-Voltage [mV] ; Battery Status ; Cycle Count ; SOC [%] ; Relativ SOC[%] ; Desired Voltage [mV]; Desired Current [mA]; Cell Voltage 1 [mV] ; Cell Voltage 2 [mV] ; Max_Error [%] ; Busvoltage[mV] ; Battery Temperature [°C] ; Charger Temperature [°C] ; Batterysystem ; Case ; PLace
007594;13.12.2019;13:53:33;Fastcharge    ;23.10.2017;FEY;;LION;49;14500;7200;192;10;75;80;8400;3000;3933;3934;1;13022;22.74;34.44;35,8;BCS1388054;7;10
007594;13.12.2019;13:55:00;Stop          ;23.10.2017;FEY;;LION;49;14500;7200;128;10;75;81;8400;3000;4046;3987;1;12733;23.04;36.34;36,1;BCS1388054;7;10
007594;13.12.2019;13:55:04;Charge to 10% ;23.10.2017;FEY;;LION;49;14500;7200;128;10;75;81;8400;3000;4047;3987;1;13022;23.04;36.34;36,1;BCS1388054;7;10
007594;13.12.2019;13:55:27;Stop          ;23.10.2017;FEY;;LION;49;14500;7200;128;10;75;81;8400;3000;3943;3945;1;13389;23.14;34.64;36,1;BCS1388054;7;10
007594;13.12.2019;13:55:29;Fastcharge    ;23.10.2017;FEY;;LION;49;14500;7200;128;10;75;81;8400;3000;3943;3944;1;13403;23.24;34.54;36,1;BCS1388054;7;10
007594;13.12.2019;13:55:29;Stop          ;23.10.2017;FEY;;LION;49;14500;7200;128;10;75;81;8400;3000;3943;3944;1;13403;23.24;34.54;36,1;BCS1388054;7;10
007594;13.12.2019;13:55:33;Normalcharge  ;23.10.2017;FEY;;LION;49;14500;7200;128;10;75;81;8400;3000;3943;3944;1;13030;23.24;34.44;36,1;BCS1388054;7;10
007594;13.12.2019;13:55:39;Fastcharge    ;23.10.2017;FEY;;LION;49;14500;7200;128;10;75;81;8400;3000;3941;3943;1;13004;23.24;34.24;36,1;BCS1388054;7;10
007594;13.12.2019;13:55:39;Stop          ;23.10.2017;FEY;;LION;49;14500;7200;128;10;75;81;8400;3000;3941;3943;1;13004;23.24;34.24;36,1;BCS1388054;7;10
007594;13.12.2019;13:56:34;Stop          ;23.10.2017;FEY;;LION;49;14500;7200;128;10;75;81;8400;3000;4041;3985;1;12713;23.44;35.64;36,2;BCS1388054;7;10
007594;13.12.2019;13:56:38;Charge to 95% ;23.10.2017;FEY;;LION;49;14500;7200;128;10;75;81;8400;3000;4051;3988;1;13022;23.44;35.74;36,2;BCS1388054;7;10
007594;13.12.2019;13:56:40;Stop          ;23.10.2017;FEY;;LION;49;14500;7200;128;10;75;81;8400;3000;4051;3988;1;13022;23.44;35.74;36,2;BCS1388054;7;10
007594;13.12.2019;13:56:48;Charge to 90% ;23.10.2017;FEY;;LION;49;14500;7200;128;10;75;81;8400;3000;3948;3951;1;13022;23.54;35.14;36,2;BCS1388054;7;10
007594;13.12.2019;15:42:54;Stop          ;23.10.2017;FEY;;LION;49;14500;7200;192;10;84;90;8400;3000;4029;4029;1;12958;29.64;31.54;34,5;BCS1388054;7;10
007594;13.12.2019;15:42:59;Fastcharge    ;23.10.2017;FEY;;LION;49;14500;7200;192;10;84;90;8400;3000;4029;4029;1;13022;29.64;31.44;34,4;BCS1388054;7;10
007594;13.12.2019;21:04:43;Stop          ;23.10.2017;FEY;;LION;49;14500;7200;224;10;94;100;8400;;4153;4152;1;13024;27.54;28.24;31,7;BCS1388054;7;10