Folder: Battery_sort_V2/reader/Batterieverzeichnis_new (part 4)

File: 009558.txt
Serialnumber ; Date ; Time ; Action ; Date of Manufacture ; Manufacturer ; Battery Name ; Device-Chemistry ; Specification-Info ; Design-Capacity [mAh] ; Design-Voltage [mV] ; Battery Status ; Cycle Count ; SOC [%] ; Relativ SOC[%] ; Desired Voltage [mV]; Desired Current [mA]; Cell Voltage 1 [mV] ; Cell Voltage 2 [mV] ; Max_Error [%] ; Busvoltage[mV] ; Battery Temperature [°C] ; Charger Temperature [°C] ; Batterysystem ; Case ; PLace
009558;07.12.2020;04:14:17;Cycle         ;03.12.2018;FEY;;LION;49;14500;7200;16576;3;98;99;;;4145;4144;1;12988;25.74;27.44;30,3;BCS1388054;1;12
009558;08.12.2020;16:19:38;Stop          ;03.12.2018;FEY;;LION;49;14500;7200;16576;3;98;99;;;4143;4142;1;12989;27.14;28.54;31,9;BCS1388054;1;12
009558;12.01.2021;04:17:40;Charge to 90% ;03.12.2018;FEY;;LION;49;14500;7200;16576;3;97;98;;;4129;4128;1;12997;22.94;22.74;23,6;BCS1388054;6;6
009558;12.01.2021;05:00:55;Stop          ;03.12.2018;FEY;;LION;49;14500;7200;192;3;89;90;8400;3000;4051;4051;1;12993;27.44;27.04;31,2;BCS1388054;6;6
009558;12.01.2021;05:21:57;Cycle         ;03.12.2018;FEY;;LION;49;14500;7200;192;3;89;90;8400;3000;4055;4055;1;12993;27.04;26.04;30,4;BCS1388054;6;6
009558;13.01.2021;08:31:18;Stop          ;03.12.2018;FEY;;LION;49;14500;7200;224;4;96;100;8400;;4154;4153;1;12993;26.44;26.14;31,1;BCS1388054;6;6
009558;21.02.2021;13:43:49;Normalcharge  ;03.12.2018;FEY;;LION;49;14500;7200;192;5;52;54;8400;3000;3683;3683;1;13010;22.74;23.34;27,7;BCS1388054;3;10
009558;21.02.2021;20:44:52;Stop           ;03.12.2018;FEY;;LION;49;14500;7200;224;5;98;100;8400;;4153;4154;1;13004;26.54;27.64;31,2;BCS1388054;3;10
009558;06.04.2021;08:39:16;Normalcharge  ;03.12.2018;FEY;;LION;49;14500;7200;224;5;96;99;8400;;4128;4128;1;13005;21.14;24.64;28,1;BCS1388054;6;5
009558;06.04.2021;08:40:03;Stop          ;03.12.2018;FEY;;LION;49;14500;7200;224;5;96;99;8400;;4128;4128;1;12984;21.24;24.64;28,5;BCS1388054;6;5
009558;08.04.2021;07:58:44;Normalcharge  ;03.12.2018;FEY;;LION;49;14500;7200;224;5;96;99;8400;;4128;4127;1;13008;25.04;22.84;26,4;BCS1388054;6;5
009558;08.04.2021;07:59:23;Stop          ;03.12.2018;FEY;;LION;49;14500;7200;224;5;96;99;8400;;4127;4127;1;13008;25.04;24.84;26,7;BCS1388054;6;5
009558;08.04.2021;10:36:16;Normalcharge  ;03.12.2018;FEY;;LION;49;14500;7200;224;5;96;99;8400;;4127;4127;1;13007;25.24;25.24;28,6;BCS1388054;6;5
009558;08.04.2021;10:37:11;Stop          ;03.12.2018;FEY;;LION;49;14500;7200;224;5;96;99;8400;;4128;4128;1;12985;25.24;25.54;29,2;BCS1388054;6;5
009558;18.04.2021;08:34:33;Normalcharge  ;03.12.2018;FEY;;LION;49;14500;7200;224;5;96;99;8400;;4124;4124;1;13001;25.94;26.04;28,2;BCS1388054;6;5
009558;18.04.2021;08:34:41;Stop          ;03.12.2018;FEY;;LION;49;14500;7200;224;5;96;99;8400;;4124;4124;1;13000;25.94;26.14;28,2;BCS1388054;6;5
009558;04.08.2021;07:24:35;Normalcharge  ;03.12.2018;FEY;;LION;49;14500;7200;192;5;93;96;8400;;4092;4092;1;12997;29.94;29.74;31,5;BCS1388054;6;5
009558;04.08.2021;07:25:17;Stop          ;03.12.2018;FEY;;LION;49;14500;7200;192;5;93;96;8400;;4092;4092;1;12981;29.94;30.14;31,6;BCS1388054;6;5
009558;22.08.2021;11:37:17;Normalcharge  ;03.12.2018;FEY;;LION;49;14500;7200;192;5;87;90;8400;3000;4032;4032;1;13002;22.74;29.44;31,9;BCS1388054;6;11
009558;22.08.2021;11:37:57;Stop          ;03.12.2018;FEY;;LION;49;14500;7200;128;5;87;90;8400;3000;4061;4048;1;12857;22.84;30.64;32,0;BCS1388054;6;11
009558;12.10.2021;12:15:28;Normalcharge  ;03.12.2018;FEY;;LION;49;14500;7200;192;5;83;85;8400;3000;3979;3979;1;12996;23.34;26.44;27,9;BCS1388054;2;14
009558;12.10.2021;12:15:46;Stop          ;03.12.2018;FEY;;LION;49;14500;7200;192;5;83;85;8400;3000;3979;3979;1;12991;23.34;27.14;27,9;BCS1388054;2;14

File: 009564.txt
Serialnumber ; Date ; Time ; Action ; Date of Manufacture ; Manufacturer ; Battery Name ; Device-Chemistry ; Specification-Info ; Design-Capacity [mAh] ; Design-Voltage [mV] ; Battery Status ; Cycle Count ; SOC [%] ; Relativ SOC[%] ; Desired Voltage [mV]; Desired Current [mA]; Cell Voltage 1 [mV] ; Cell Voltage 2 [mV] ; Max_Error [%] ; Busvoltage[mV] ; Battery Temperature [°C] ; Charger Temperature [°C] ; Batterysystem ; Case ; PLace
009564;07.12.2020;04:14:36;Cycle         ;03.12.2018;FEY;;LION;49;14500;7200;192;1;98;97;8400;;4137;4136;1;13010;24.44;28.24;30,3;BCS1388054;6;17
009564;08.12.2020;16:20:13;Stop          ;03.12.2018;FEY;;LION;49;14500;7200;192;1;98;97;8400;;4135;4134;1;13009;26.44;29.94;31,9;BCS1388054;6;17
009564;12.01.2021;04:17:40;Charge to 90% ;03.12.2018;FEY;;LION;49;14500;7200;192;2;92;91;8400;3000;4066;4065;1;13001;21.84;23.34;23,6;BCS1388054;6;7
009564;12.01.2021;05:00:55;Stop          ;03.12.2018;FEY;;LION;49;14500;7200;192;2;91;90;8400;3000;4058;4058;1;12994;25.24;29.54;31,2;BCS1388054;6;7
009564;12.01.2021;05:21:57;Cycle         ;03.12.2018;FEY;;LION;49;14500;7200;192;2;91;90;8400;3000;4058;4058;1;12996;25.64;28.24;30,4;BCS1388054;6;7
009564;13.01.2021;08:31:18;Stop          ;03.12.2018;FEY;;LION;49;14500;7200;224;3;97;100;8400;;4156;4157;1;12997;25.84;28.24;31,1;BCS1388054;6;7
009564;21.02.2021;13:43:49;Normalcharge  ;03.12.2018;FEY;;LION;49;14500;7200;224;3;96;99;8400;;4131;4132;1;13014;21.64;23.04;27,7;BCS1388054;3;15
009564;21.02.2021;20:44:52;Stop           ;03.12.2018;FEY;;LION;49;14500;7200;224;3;96;99;8400;;4131;4132;1;13010;25.44;28.04;31,2;BCS1388054;3;15
009564;06.04.2021;08:39:10;Normalcharge  ;03.12.2018;FEY;;LION;49;14500;7200;224;3;96;99;8400;;4115;4116;1;13007;20.64;25.24;28,1;BCS1388054;5;12
009564;06.04.2021;08:39:58;Stop          ;03.12.2018;FEY;;LION;49;14500;7200;224;3;96;99;8400;;4115;4116;1;13007;20.74;25.34;28,4;BCS1388054;5;12
009564;08.04.2021;07:58:30;Normalcharge  ;03.12.2018;FEY;;LION;49;14500;7200;192;3;95;97;8400;;4115;4115;1;13008;23.94;25.54;26,4;BCS1388054;5;12
009564;08.04.2021;07:59:28;Stop          ;03.12.2018;FEY;;LION;49;14500;7200;192;3;95;97;8400;;4115;4115;1;13006;23.94;25.84;26,7;BCS1388054;5;12
009564;08.04.2021;10:36:12;Normalcharge  ;03.12.2018;FEY;;LION;49;14500;7200;192;3;95;97;8400;;4115;4115;1;13006;24.14;26.14;28,6;BCS1388054;5;12
009564;08.04.2021;10:37:06;Stop          ;03.12.2018;FEY;;LION;49;14500;7200;192;3;95;97;8400;;4115;4115;1;13007;24.14;26.34;29,0;BCS1388054;5;12
009564;18.04.2021;08:34:16;Normalcharge  ;03.12.2018;FEY;;LION;49;14500;7200;192;3;95;97;8400;;4112;4112;1;13005;24.94;26.84;28,1;BCS1388054;5;12
009564;18.04.2021;08:34:27;Stop          ;03.12.2018;FEY;;LION;49;14500;7200;192;3;95;97;8400;;4112;4112;1;13005;24.94;26.84;28,2;BCS1388054;5;12
009564;04.08.2021;07:24:41;Normalcharge  ;03.12.2018;FEY;;LION;49;14500;7200;192;3;95;97;8400;;4083;4083;1;13001;28.94;30.94;31,5;BCS1388054;5;12
009564;04.08.2021;07:25:23;Stop          ;03.12.2018;FEY;;LION;49;14500;7200;192;3;95;97;8400;;4083;4083;1;13000;28.94;31.04;31,6;BCS1388054;5;12
009564;22.08.2021;11:37:17;Normalcharge  ;03.12.2018;FEY;;LION;49;14500;7200;192;3;92;94;8400;3000;4078;4078;1;12996;21.14;29.14;31,9;BCS1388054;6;14
009564;22.08.2021;11:37:57;Stop          ;03.12.2018;FEY;;LION;49;14500;7200;128;3;92;94;8400;3000;4107;4095;1;12843;21.24;30.54;32,0;BCS1388054;6;14
009564;12.10.2021;12:15:20;Normalcharge  ;03.12.2018;FEY;;LION;49;14500;7200;192;3;91;94;8400;3000;4063;4064;1;12986;22.14;27.44;27,9;BCS1388054;1;12
009564;12.10.2021;12:15:34;Stop          ;03.12.2018;FEY;;LION;49;14500;7200;192;3;91;94;8400;3000;4063;4064;1;12972;22.24;27.94;27,9;BCS1388054;1;12
009564;14.10.2021;12:40:07;Normalcharge  ;03.12.2018;FEY;;LION;49;14500;7200;192;3;91;94;8400;3000;4063;4063;1;12992;23.94;26.94;27,9;BCS1388054;4;2
009564;14.10.2021;12:41:43;Stop          ;03.12.2018;FEY;;LION;49;14500;7200;128;3;92;94;8400;3000;4132;4104;1;12669;24.04;30.44;28,4;BCS1388054;4;2
009564;14.03.2022;10:33:51;Normalcharge  ;03.12.2018;FEY;;LION;49;14500;7200;192;3;64;66;8400;3000;3792;3793;1;13012;22.94;24.84;25,3;BCS1388054;5;11
009564;14.03.2022;10:38:12;Stop          ;03.12.2018;FEY;;LION;49;14500;7200;128;3;64;67;8400;3000;3901;3854;1;12686;23.14;29.34;28,1;BCS1388054;5;11
009564;17.05.2022;08:54:14;Normalcharge  ;03.12.2018;FEY;;LION;49;14500;7200;192;3;62;65;8400;3000;3776;3776;1;13004;27.24;30.74;30,8;BCS1388054;3;13
009564;17.05.2022;12:55:21;Stop           ;03.12.2018;FEY;;LION;49;14500;7200;224;3;97;100;8400;;4165;4166;1;13001;30.34;34.54;34,1;BCS1388054;3;13

File: 009574.txt
Serialnumber ; Date ; Time ; Action ; Date of Manufacture ; Manufacturer ; Battery Name ; Device-Chemistry ; Specification-Info ; Design-Capacity [mAh] ; Design-Voltage [mV] ; Battery Status ; Cycle Count ; SOC [%] ; Relativ SOC[%] ; Desired Voltage [mV]; Desired Current [mA]; Cell Voltage 1 [mV] ; Cell Voltage 2 [mV] ; Max_Error [%] ; Busvoltage[mV] ; Battery Temperature [°C] ; Charger Temperature [°C] ; Batterysystem ; Case ; PLace
009574;30.11.2020;09:42:55;Stop          ;04.12.2018;FEY;;LION;49;14500;7200;192;3;96;98;8400;;4129;4130;1;13023;27.94;28.94;31,7;BCS1388054;7;13
009574;12.01.2021;04:17:22;Charge to 90% ;04.12.2018;FEY;;LION;49;14500;7200;192;3;95;97;8400;;4113;4113;1;13008;23.34;24.44;23,5;BCS1388054;2;10
009574;12.01.2021;04:54:21;Stop          ;04.12.2018;FEY;;LION;49;14500;7200;192;3;89;90;8400;3000;4050;4050;1;12999;26.84;30.74;31,9;BCS1388054;2;10
009574;12.01.2021;05:21:40;Cycle         ;04.12.2018;FEY;;LION;49;14500;7200;192;3;89;90;8400;3000;4054;4055;1;13001;27.24;28.84;30,6;BCS1388054;2;10
009574;13.01.2021;08:20:19;Stop          ;04.12.2018;FEY;;LION;49;14500;7200;224;4;97;100;8400;;4156;4158;1;13001;27.34;28.84;30,8;BCS1388054;2;10
009574;21.02.2021;13:44:56;Normalcharge  ;04.12.2018;FEY;;LION;49;14500;7200;192;5;63;65;8400;3000;3807;3809;1;13021;23.34;24.14;27,7;BCS1388054;5;5
009574;21.02.2021;19:31:36;Stop          ;04.12.2018;FEY;;LION;49;14500;7200;224;5;97;100;8400;;4153;4153;1;13016;27.14;28.24;30,6;BCS1388054;5;5
009574;06.04.2021;08:39:03;Normalcharge  ;04.12.2018;FEY;;LION;49;14500;7200;224;5;96;99;8400;;4127;4127;1;13007;21.04;24.84;28,1;BCS1388054;4;17
009574;06.04.2021;08:39:53;Stop          ;04.12.2018;FEY;;LION;49;14500;7200;224;5;96;99;8400;;4127;4127;1;13005;21.14;25.04;28,4;BCS1388054;4;17
009574;08.04.2021;07:58:12;Normalcharge  ;04.12.2018;FEY;;LION;49;14500;7200;224;5;95;99;8400;;4127;4127;1;13007;25.44;19.84;26,3;BCS1388054;4;17
009574;08.04.2021;07:59:34;Stop          ;04.12.2018;FEY;;LION;49;14500;7200;224;5;95;99;8400;;4126;4126;1;12988;25.44;25.64;26,7;BCS1388054;4;17
009574;08.04.2021;10:36:07;Normalcharge  ;04.12.2018;FEY;;LION;49;14500;7200;224;5;95;99;8400;;4127;4127;1;13006;25.64;25.74;28,5;BCS1388054;4;17
009574;08.04.2021;10:37:03;Stop          ;04.12.2018;FEY;;LION;49;14500;7200;224;5;95;99;8400;;4127;4127;1;12983;25.64;26.04;29,0;BCS1388054;4;17
009574;18.04.2021;08:34:04;Normalcharge  ;04.12.2018;FEY;;LION;49;14500;7200;224;5;95;99;8400;;4123;4123;1;13006;26.34;26.54;27,9;BCS1388054;4;17
009574;18.04.2021;08:34:10;Stop          ;04.12.2018;FEY;;LION;49;14500;7200;224;5;95;99;8400;;4123;4123;1;13005;26.34;26.64;28,1;BCS1388054;4;17
009574;04.08.2021;07:24:46;Normalcharge  ;04.12.2018;FEY;;LION;49;14500;7200;192;5;93;96;8400;;4090;4090;1;13002;30.54;30.54;31,5;BCS1388054;4;17
009574;04.08.2021;07:25:30;Stop          ;04.12.2018;FEY;;LION;49;14500;7200;192;5;93;96;8400;;4090;4090;1;12979;30.54;30.84;31,7;BCS1388054;4;17
009574;22.08.2021;11:08:14;Normalcharge  ;04.12.2018;FEY;;LION;49;14500;7200;192;5;72;76;8400;3000;3894;3895;1;13010;23.84;30.14;32,2;BCS1388054;6;17
009574;22.08.2021;11:08:47;Stop          ;04.12.2018;FEY;;LION;49;14500;7200;128;5;72;76;8400;3000;3921;3909;1;12778;23.84;31.54;32,5;BCS1388054;6;17
009574;14.10.2021;12:39:51;Normalcharge  ;04.12.2018;FEY;;LION;49;14500;7200;192;5;47;49;8400;3000;3643;3644;1;12994;24.94;26.24;27,9;BCS1388054;1;4
009574;14.10.2021;12:41:14;Stop          ;04.12.2018;FEY;;LION;49;14500;7200;128;5;47;49;8400;3000;3730;3681;1;12479;25.04;29.64;28,2;BCS1388054;1;4
009574;01.11.2021;09:52:20;Normalcharge  ;04.12.2018;FEY;;LION;49;14500;7200;192;5;47;49;8400;3000;3641;3643;1;12994;26.14;26.04;26,4;BCS1388054;1;4
009574;01.11.2021;09:53:13;Stop          ;04.12.2018;FEY;;LION;49;14500;7200;128;5;47;49;8400;3000;3725;3678;1;12475;26.14;28.34;26,8;BCS1388054;1;4
009574;01.11.2021;10:01:59;Normalcharge  ;04.12.2018;FEY;;LION;49;14500;7200;192;5;47;49;8400;3000;3643;3644;1;12991;26.24;27.54;29,5;BCS1388054;1;4
009574;01.11.2021;10:03:29;Stop          ;04.12.2018;FEY;;LION;49;14500;7200;128;5;47;49;8400;3000;3732;3686;1;12467;26.34;30.34;29,3;BCS1388054;1;4
009574;01.11.2021;10:27:58;Normalcharge  ;04.12.2018;FEY;;LION;49;14500;7200;192;5;47;49;8400;3000;3645;3646;1;12993;26.54;26.54;27,8;BCS1388054;1;4
009574;01.11.2021;10:28:31;Stop          ;04.12.2018;FEY;;LION;49;14500;7200;128;5;47;49;8400;3000;3678;3661;1;12680;26.54;27.74;28,1;BCS1388054;1;4
009574;01.11.2021;10:31:48;Charge to 60% ;04.12.2018;FEY;;LION;49;14500;7200;192;5;47;49;8400;3000;3646;3647;1;12989;26.54;24.94;29,9;BCS1388054;1;4
009574;01.11.2021;11:39:51;Stop          ;04.12.2018;FEY;;LION;49;14500;7200;192;5;57;60;8400;3000;3734;3736;1;12988;28.84;28.64;32,5;BCS1388054;1;4
009574;09.02.2022;08:16:46;Normalcharge  ;04.12.2018;FEY;;LION;49;14500;7200;192;5;53;55;8400;3000;3696;3698;1;13006;22.84;22.74;23,1;BCS1388054;3;1
009574;09.02.2022;12:49:53;Stop           ;04.12.2018;FEY;;LION;49;14500;7200;224;5;97;100;8400;;4159;4157;1;13001;26.54;27.34;29,9;BCS1388054;3;1
009574;14.03.2022;12:14:26;Normalcharge  ;04.12.2018;FEY;;LION;49;14500;7200;224;5;95;99;8400;;4129;4128;1;13007;24.34;24.04;27,5;BCS1388054;5;1
009574;14.03.2022;12:18:30;Stop          ;04.12.2018;FEY;;LION;49;14500;7200;224;5;95;99;8400;;4129;4128;1;13004;24.44;25.74;29,5;BCS1388054;5;1

File: 009579.txt
Serialnumber ; Date ; Time ; Action ; Date of Manufacture ; Manufacturer ; Battery Name ; Device-Chemistry ; Specification-Info ; Design-Capacity [mAh] ; Design-Voltage [mV] ; Battery Status ; Cycle Count ; SOC [%] ; Relativ SOC[%] ; Desired Voltage [mV]; Desired Current [mA]; Cell Voltage 1 [mV] ; Cell Voltage 2 [mV] ; Max_Error [%] ; Busvoltage[mV] ; Battery Temperature [°C] ; Charger Temperature [°C] ; Batterysystem ; Case ; PLace
009579;07.12.2020;04:14:32;Cycle         ;04.12.2018;FEY;;LION;49;14500;7200;192;3;98;98;8400;;4138;4139;1;13010;25.74;27.54;30,3;BCS1388054;5;9
009579;08.12.2020;16:20:01;Stop          ;04.12.2018;FEY;;LION;49;14500;7200;192;3;98;98;8400;;4137;4137;1;13008;27.94;29.14;31,7;BCS1388054;5;9
009579;12.01.2021;04:17:40;Charge to 90% ;04.12.2018;FEY;;LION;49;14500;7200;192;3;97;97;8400;;4123;4123;1;13002;23.14;24.94;23,6;BCS1388054;6;2
009579;12.01.2021;05:00:55;Stop          ;04.12.2018;FEY;;LION;49;14500;7200;192;3;90;90;8400;3000;4059;4058;1;12998;27.14;31.44;31,2;BCS1388054;6;2
009579;12.01.2021;05:21:57;Cycle         ;04.12.2018;FEY;;LION;49;14500;7200;192;3;90;90;8400;3000;4062;4061;1;12999;27.14;30.14;30,4;BCS1388054;6;2
009579;13.01.2021;08:31:18;Stop          ;04.12.2018;FEY;;LION;49;14500;7200;224;4;98;100;8400;;4155;4156;1;12997;26.94;30.24;31,1;BCS1388054;6;2
009579;22.02.2021;17:31:46;Normalcharge  ;04.12.2018;FEY;;LION;49;14500;7200;192;5;43;44;8400;3000;3621;3620;1;12991;25.74;27.54;31,6;BCS1388054;1;2
009579;22.02.2021;23:06:28;Stop          ;04.12.2018;FEY;;LION;49;14500;7200;224;5;98;100;8400;;4160;4160;1;12991;26.84;28.44;30,6;BCS1388054;1;2
009579;04.04.2021;11:49:55;Normalcharge  ;04.12.2018;FEY;;LION;49;14500;7200;192;6;55;55;8400;3000;3703;3700;1;13025;25.04;25.04;27,5;BCS1388054;7;11
009579;04.04.2021;11:51:17;Stop          ;04.12.2018;FEY;;LION;49;14500;7200;128;6;55;56;8400;3000;3789;3740;1;12738;25.14;27.74;28,4;BCS1388054;7;11
009579;05.04.2021;09:37:37;Charge to 60% ;04.12.2018;FEY;;LION;49;14500;7200;192;6;55;56;8400;3000;3705;3702;1;12998;25.04;26.84;26,0;BCS1388054;1;8
009579;05.04.2021;10:01:53;Stop          ;04.12.2018;FEY;;LION;49;14500;7200;192;6;59;60;8400;3000;3762;3756;1;12995;26.84;29.84;31,2;BCS1388054;1;8
009579;22.08.2021;11:07:55;Normalcharge  ;04.12.2018;FEY;;LION;49;14500;7200;192;6;45;46;8400;3000;3623;3622;1;12995;22.64;30.44;32,0;BCS1388054;2;1
009579;22.08.2021;11:08:28;Stop          ;04.12.2018;FEY;;LION;49;14500;7200;128;6;45;46;8400;3000;3666;3641;1;12641;22.74;31.44;32,4;BCS1388054;2;1
009579;25.08.2021;08:14:57;Charge to 60% ;04.12.2018;FEY;;LION;49;14500;7200;192;6;45;45;8400;3000;3625;3624;1;13000;30.44;32.74;33,2;BCS1388054;6;3
009579;25.08.2021;09:50:39;Stop          ;04.12.2018;FEY;;LION;49;14500;7200;192;6;59;60;8400;3000;3738;3736;1;12999;33.94;35.74;36,4;BCS1388054;6;3
009579;01.11.2021;09:52:06;Normalcharge  ;04.12.2018;FEY;;LION;49;14500;7200;192;6;11;12;8400;3000;3363;3361;1;13002;24.34;24.84;26,3;BCS1388054;4;14
009579;01.11.2021;09:53:35;Stop          ;04.12.2018;FEY;;LION;49;14500;7200;128;6;12;12;8400;3000;3472;3424;1;12607;24.44;28.84;27,1;BCS1388054;4;14
009579;01.11.2021;10:02:14;Normalcharge  ;04.12.2018;FEY;;LION;49;14500;7200;192;6;12;12;8400;3000;3366;3364;1;12995;24.74;27.34;29,5;BCS1388054;4;14
009579;01.11.2021;10:03:16;Stop          ;04.12.2018;FEY;;LION;49;14500;7200;128;6;12;12;8400;3000;3473;3423;1;12583;24.84;30.04;29,3;BCS1388054;4;14
009579;01.11.2021;10:18:21;Normalcharge  ;04.12.2018;FEY;;LION;49;14500;7200;192;6;12;12;8400;3000;3368;3366;1;12997;25.24;26.44;28,4;BCS1388054;4;14
009579;01.11.2021;10:19:03;Stop          ;04.12.2018;FEY;;LION;49;14500;7200;128;6;12;12;8400;3000;3469;3421;1;12564;25.34;28.64;28,2;BCS1388054;4;14
009579;01.11.2021;10:28:22;Normalcharge  ;04.12.2018;FEY;;LION;49;14500;7200;192;6;12;12;8400;3000;3369;3367;1;13002;25.54;26.74;27,9;BCS1388054;4;14
009579;01.11.2021;10:29:09;Stop          ;04.12.2018;FEY;;LION;49;14500;7200;128;6;12;12;8400;3000;3469;3421;1;12575;25.54;29.04;28,5;BCS1388054;4;14
009579;01.11.2021;10:32:29;Charge to 60% ;04.12.2018;FEY;;LION;49;14500;7200;192;6;12;12;8400;3000;3370;3368;1;13003;25.64;27.24;29,7;BCS1388054;4;14
009579;01.11.2021;15:19:33;Stop          ;04.12.2018;FEY;;LION;49;14500;7200;192;6;59;60;8400;3000;3765;3759;1;13001;29.04;30.04;32,7;BCS1388054;4;14
009579;07.02.2022;08:50:52;Normalcharge  ;04.12.2018;FEY;;LION;49;14500;7200;192;6;57;57;8400;3000;3717;3714;1;13005;22.24;21.64;25,0;BCS1388054;5;6
009579;07.02.2022;13:22:36;Stop          ;04.12.2018;FEY;;LION;49;14500;7200;224;6;99;100;8400;;4159;4158;1;13000;26.64;25.54;28,5;BCS1388054;5;6
009579;14.03.2022;10:34:06;Normalcharge  ;04.12.2018;FEY;;LION;49;14500;7200;192;7;79;80;8400;3000;3930;3928;1;13007;24.34;25.64;25,4;BCS1388054;3;13
009579;14.03.2022;10:38:27;Stop           ;04.12.2018;FEY;;LION;49;14500;7200;128;7;80;81;8400;3000;4033;3985;1;12616;24.54;32.54;28,1;BCS1388054;3;13

File: 009583.txt
Serialnumber ; Date ; Time ; Action ; Date of Manufacture ; Manufacturer ; Battery Name ; Device-Chemistry ; Specification-Info ; Design-Capacity [mAh] ; Design-Voltage [mV] ; Battery Status ; Cycle Count ; SOC [%] ; Relativ SOC[%] ; Desired Voltage [mV]; Desired Current [mA]; Cell Voltage 1 [mV] ; Cell Voltage 2 [mV] ; Max_Error [%] ; Busvoltage[mV] ; Battery Temperature [°C] ; Charger Temperature [°C] ; Batterysystem ; Case ; PLace
009583;02.12.2020;11:43:08;Cycle         ;04.12.2018;FEY;;LION;49;14500;7200;192;3;79;80;8400;3000;3929;3929;1;12990;26.14;26.64;28,4;BCS1388054;1;5
009583;03.12.2020;15:31:47;Stop          ;04.12.2018;FEY;;LION;49;14500;7200;224;4;96;100;8400;;4155;4156;1;12991;26.74;27.04;28,8;BCS1388054;1;5
009583;03.12.2020;17:28:02;Normalcharge  ;04.12.2018;FEY;;LION;49;14500;7200;224;4;96;100;8400;;4153;4155;1;12992;26.64;27.04;28,9;BCS1388054;1;5
009583;06.04.2021;08:38:50;Normalcharge  ;04.12.2018;FEY;;LION;49;14500;7200;192;4;93;97;8400;;4101;4102;1;13003;20.84;24.84;28,1;BCS1388054;3;9
009583;06.04.2021;08:39:42;Stop           ;04.12.2018;FEY;;LION;49;14500;7200;192;4;93;97;8400;;4101;4102;1;13004;20.84;25.14;28,2;BCS1388054;3;9
009583;08.04.2021;07:58:01;Normalcharge  ;04.12.2018;FEY;;LION;49;14500;7200;192;4;93;97;8400;;4102;4102;1;13010;25.44;25.24;26,4;BCS1388054;3;9
009583;08.04.2021;07:59:40;Stop           ;04.12.2018;FEY;;LION;49;14500;7200;192;4;93;97;8400;;4102;4102;1;13007;25.44;25.94;26,8;BCS1388054;3;9
009583;08.04.2021;10:35:05;Normalcharge  ;04.12.2018;FEY;;LION;49;14500;7200;192;4;93;97;8400;;4102;4102;1;13005;25.64;25.44;28,1;BCS1388054;3;9
009583;08.04.2021;10:36:56;Stop           ;04.12.2018;FEY;;LION;49;14500;7200;192;4;93;97;8400;;4101;4102;1;13002;25.64;26.34;29,0;BCS1388054;3;9
009583;18.04.2021;08:33:50;Normalcharge  ;04.12.2018;FEY;;LION;49;14500;7200;192;4;93;97;8400;;4099;4099;1;13007;26.34;26.74;27,8;BCS1388054;3;9
009583;18.04.2021;08:33:58;Stop           ;04.12.2018;FEY;;LION;49;14500;7200;192;4;93;97;8400;;4099;4099;1;13008;26.34;26.74;27,9;BCS1388054;3;9
009583;04.08.2021;07:24:50;Normalcharge  ;04.12.2018;FEY;;LION;49;14500;7200;192;4;93;97;8400;;4071;4072;1;13001;30.54;30.84;31,6;BCS1388054;3;9
009583;04.08.2021;07:25:37;Stop           ;04.12.2018;FEY;;LION;49;14500;7200;192;4;93;97;8400;;4071;4072;1;12999;30.54;31.14;31,7;BCS1388054;3;9
009583;22.08.2021;11:08:08;Normalcharge  ;04.12.2018;FEY;;LION;49;14500;7200;2768;5;;;8400;3000;3108;3113;1;13008;22.64;29.04;32,1;BCS1388054;5;9
009583;22.08.2021;11:08:41;Stop          ;04.12.2018;FEY;;LION;49;14500;7200;2768;5;;;8400;3000;3108;3113;1;12868;22.74;30.14;32,5;BCS1388054;5;9
009583;25.08.2021;08:13:04;Normalcharge  ;04.12.2018;FEY;;LION;49;14500;7200;720;5;;;8400;3000;3110;3114;1;13023;30.54;31.24;32,4;BCS1388054;7;4
009583;25.08.2021;08:13:16;Stop          ;04.12.2018;FEY;;LION;49;14500;7200;720;5;;;8400;3000;3110;3115;1;13011;30.54;31.54;32,5;BCS1388054;7;4
009583;25.08.2021;08:14:41;Charge to 60% ;04.12.2018;FEY;;LION;49;14500;7200;720;5;;;8400;3000;3110;3115;1;13021;30.54;31.54;33,0;BCS1388054;7;4
009583;25.08.2021;08:37:46;Stop          ;04.12.2018;FEY;;LION;49;14500;7200;144;5;;;8400;3000;3471;3417;1;12750;31.74;38.24;36,1;BCS1388054;7;4
009583;25.08.2021;08:38:03;Charge to 60% ;04.12.2018;FEY;;LION;49;14500;7200;144;5;;;8400;3000;3376;3376;1;13021;31.84;37.24;36,1;BCS1388054;7;4
009583;25.08.2021;13:26:36;Stop          ;04.12.2018;FEY;;LION;49;14500;7200;192;5;54;60;8400;3000;3795;3796;1;13020;33.44;33.44;36,4;BCS1388054;7;4
009583;01.11.2021;09:51:55;Normalcharge  ;04.12.2018;FEY;;LION;49;14500;7200;192;5;56;59;8400;3000;3738;3738;1;12999;25.94;25.44;26,3;BCS1388054;6;1
009583;01.11.2021;09:53:45;Stop          ;04.12.2018;FEY;;LION;49;14500;7200;128;5;56;59;8400;3000;3831;3786;1;12639;26.04;29.74;27,3;BCS1388054;6;1
009583;01.11.2021;10:02:24;Normalcharge  ;04.12.2018;FEY;;LION;49;14500;7200;192;5;56;59;8400;3000;3744;3744;1;12994;26.14;28.04;29,5;BCS1388054;6;1
009583;01.11.2021;10:03:07;Stop          ;04.12.2018;FEY;;LION;49;14500;7200;128;5;57;59;8400;3000;3827;3780;1;12644;26.14;29.44;29,3;BCS1388054;6;1
009583;01.11.2021;10:27:30;Normalcharge  ;04.12.2018;FEY;;LION;49;14500;7200;192;5;57;59;8400;3000;3745;3745;1;12996;26.54;26.34;27,8;BCS1388054;6;1
009583;01.11.2021;10:29:18;Stop          ;04.12.2018;FEY;;LION;49;14500;7200;128;5;57;60;8400;3000;3839;3791;1;12636;26.54;30.54;28,6;BCS1388054;6;1
009583;01.11.2021;14:25:59;Stop          ;04.12.2018;FEY;;LION;49;14500;7200;192;5;57;60;8400;3000;3750;3750;1;12994;28.34;30.04;32,6;BCS1388054;6;1
009583;09.02.2022;08:16:53;Normalcharge  ;04.12.2018;FEY;;LION;49;14500;7200;192;5;56;58;8400;3000;3712;3713;1;13011;22.54;23.24;23,1;BCS1388054;1;6
009583;09.02.2022;13:56:48;Stop          ;04.12.2018;FEY;;LION;49;14500;7200;224;5;96;100;8400;;4153;4152;1;12972;25.24;26.54;29,9;BCS1388054;1;6
009583;14.03.2022;12:14:36;Normalcharge  ;04.12.2018;FEY;;LION;49;14500;7200;224;5;94;99;8400;;4128;4128;1;13005;24.54;24.94;27,7;BCS1388054;3;18
009583;14.03.2022;12:18:51;Stop           ;04.12.2018;FEY;;LION;49;14500;7200;224;5;94;99;8400;;4128;4128;1;12964;24.54;25.54;29,5;BCS1388054;3;18
009583;29.03.2022;08:20:58;Normalcharge  ;04.12.2018;FEY;;LION;49;14500;7200;192;5;67;71;8400;3000;3863;3863;1;12995;24.94;25.54;25,7;BCS1388054;4;2
009583;29.03.2022;08:21:36;Stop          ;04.12.2018;FEY;;LION;49;14500;7200;128;5;67;71;8400;3000;3896;3879;1;12733;24.94;27.14;26,0;BCS1388054;4;2
009583;29.03.2022;08:22:11;Normalcharge  ;04.12.2018;FEY;;LION;49;14500;7200;128;5;67;71;8400;3000;3866;3866;1;12995;24.94;27.04;26,3;BCS1388054;4;2
009583;29.03.2022;08:22:29;Stop          ;04.12.2018;FEY;;LION;49;14500;7200;128;5;67;71;8400;3000;3880;3873;1;12902;24.94;27.54;26,4;BCS1388054;4;2
009583;17.05.2022;08:54:25;Normalcharge  ;04.12.2018;FEY;;LION;49;14500;7200;192;5;67;71;8400;3000;3852;3852;1;13013;28.94;30.14;31,0;BCS1388054;5;9
009583;17.05.2022;13:10:23;Stop          ;04.12.2018;FEY;;LION;49;14500;7200;224;5;95;100;8400;;4157;4156;1;13011;33.14;33.64;34,0;BCS1388054;5;9