Folder: Battery_sort_V2/reader/backup_20211101/Batterieverzeichnis_new (part 3)

File: 009748.txt
Serialnumber ; Date ; Time ; Action ; Date of Manufacture ; Manufacturer ; Battery Name ; Device-Chemistry ; Specification-Info ; Design-Capacity [mAh] ; Design-Voltage [mV] ; Battery Status ; Cycle Count ; SOC [%] ; Relativ SOC[%] ; Desired Voltage [mV]; Desired Current [mA]; Cell Voltage 1 [mV] ; Cell Voltage 2 [mV] ; Max_Error [%] ; Busvoltage[mV] ; Battery Temperature [°C] ; Charger Temperature [°C] ; Batterysystem ; Case ; PLace
009748;07.12.2020;04:14:25;Cycle          ;04.12.2018;FEY;;LION;49;14500;7200;192;2;98;98;8400;;4144;4145;1;13002;25.84;27.44;30,3;BCS1388054;3;10
009748;08.12.2020;16:19:50;Stop           ;04.12.2018;FEY;;LION;49;14500;7200;192;2;97;98;8400;;4141;4143;1;13003;28.04;29.04;31,9;BCS1388054;3;10
009748;07.02.2021;08:47:00;Normalcharge  ;04.12.2018;FEY;;LION;49;14500;7200;192;2;90;91;8400;3000;4060;4062;1;13014;23.94;24.34;29,2;BCS1388054;4;18
009748;07.02.2021;11:52:20;Stop          ;04.12.2018;FEY;;LION;49;14500;7200;224;2;100;100;8400;;4151;4153;1;13014;25.84;25.84;29,7;BCS1388054;4;18
009748;03.03.2021;08:17:21;Normalcharge  ;04.12.2018;FEY;;LION;49;14500;7200;192;2;90;93;8400;3000;4067;4068;1;13011;23.24;23.14;23,5;BCS1388054;3;9
009748;04.03.2021;07:53:40;Stop           ;04.12.2018;FEY;;LION;49;14500;7200;224;2;98;100;8400;;4148;4150;1;13006;26.74;27.64;31,5;BCS1388054;3;9
009748;04.04.2021;11:50:22;Normalcharge  ;04.12.2018;FEY;;LION;49;14500;7200;192;3;47;49;8400;3000;3644;3645;1;13007;25.34;25.44;27,9;BCS1388054;4;9
009748;04.04.2021;11:51:36;Stop          ;04.12.2018;FEY;;LION;49;14500;7200;128;3;47;49;8400;3000;3728;3683;1;12730;25.34;28.04;28,6;BCS1388054;4;9
009748;05.04.2021;09:38:17;Charge to 60% ;04.12.2018;FEY;;LION;49;14500;7200;192;3;47;49;8400;3000;3645;3646;1;12994;25.24;25.44;26,4;BCS1388054;5;13
009748;05.04.2021;10:34:50;Charge to 60% ;04.12.2018;FEY;;LION;49;14500;7200;192;3;58;60;8400;3000;3745;3750;1;12911;28.94;30.44;32,4;BCS1388054;5;13
009748;05.04.2021;13:16:09;Stop          ;04.12.2018;FEY;;LION;49;14500;7200;192;3;58;60;8400;3000;3739;3743;1;12992;27.94;29.24;32,2;BCS1388054;5;13
009748;22.08.2021;11:37:30;Normalcharge  ;04.12.2018;FEY;;LION;49;14500;7200;192;3;53;55;8400;3000;3694;3695;1;13003;21.84;28.34;31,9;BCS1388054;3;9
009748;22.08.2021;11:38:19;Stop           ;04.12.2018;FEY;;LION;49;14500;7200;128;3;53;55;8400;3000;3780;3734;1;12566;22.04;30.34;32,1;BCS1388054;3;9
009748;25.08.2021;08:15:15;Ladung auf 60% ;04.12.2018;FEY;;LION;49;14500;7200;192;3;54;55;8400;3000;3696;3698;1;12998;30.64;31.74;33,4;BCS1388054;3;9
009748;25.08.2021;08:40:44;Stop           ;04.12.2018;FEY;;LION;49;14500;7200;192;3;58;60;8400;3000;3753;3760;1;12997;32.44;34.54;36,1;BCS1388054;3;9
009748;01.11.2021;09:52:01;Normalcharge  ;04.12.2018;FEY;;LION;49;14500;7200;192;3;55;57;8400;3000;3717;3719;1;13015;25.94;26.94;26,3;BCS1388054;5;15
009748;01.11.2021;09:53:41;Stop          ;04.12.2018;FEY;;LION;49;14500;7200;128;3;56;57;8400;3000;3811;3764;1;12588;25.94;30.84;27,3;BCS1388054;5;15
009748;01.11.2021;10:02:19;Normalcharge  ;04.12.2018;FEY;;LION;49;14500;7200;192;3;56;57;8400;3000;3721;3724;1;13010;26.04;28.94;29,5;BCS1388054;5;15
009748;01.11.2021;10:03:11;Stop          ;04.12.2018;FEY;;LION;49;14500;7200;128;3;56;57;8400;3000;3809;3763;1;12586;26.14;31.04;29,3;BCS1388054;5;15

File: 009770.txt
Serialnumber ; Date ; Time ; Action ; Date of Manufacture ; Manufacturer ; Battery Name ; Device-Chemistry ; Specification-Info ; Design-Capacity [mAh] ; Design-Voltage [mV] ; Battery Status ; Cycle Count ; SOC [%] ; Relativ SOC[%] ; Desired Voltage [mV]; Desired Current [mA]; Cell Voltage 1 [mV] ; Cell Voltage 2 [mV] ; Max_Error [%] ; Busvoltage[mV] ; Battery Temperature [°C] ; Charger Temperature [°C] ; Batterysystem ; Case ; PLace
009770;07.12.2020;04:14:25;Cycle          ;04.12.2018;FEY;;LION;49;14500;7200;16576;3;98;98;;;4140;4141;1;13006;25.74;26.84;30,3;BCS1388054;3;17
009770;08.12.2020;16:19:50;Stop           ;04.12.2018;FEY;;LION;49;14500;7200;16576;3;98;98;;;4138;4138;1;13007;27.94;28.64;31,9;BCS1388054;3;17
009770;07.02.2021;08:47:06;Normalcharge  ;04.12.2018;FEY;;LION;49;14500;7200;192;4;91;90;8400;3000;4060;4059;1;13006;23.54;25.24;29,2;BCS1388054;5;1
009770;07.02.2021;11:50:11;Stop          ;04.12.2018;FEY;;LION;49;14500;7200;224;4;101;100;8400;;4149;4149;1;13005;25.74;26.74;30,0;BCS1388054;5;1
009770;03.03.2021;08:17:17;Normalcharge  ;04.12.2018;FEY;;LION;49;14500;7200;192;4;93;95;8400;3000;4084;4084;1;13011;23.24;23.64;23,5;BCS1388054;2;4
009770;04.03.2021;07:53:46;Stop          ;04.12.2018;FEY;;LION;49;14500;7200;224;4;99;100;8400;;4146;4146;1;13004;26.44;28.14;31,6;BCS1388054;2;4
009770;04.04.2021;11:50:39;Normalcharge  ;04.12.2018;FEY;;LION;49;14500;7200;192;4;52;54;8400;3000;3684;3684;1;12996;24.94;25.74;28,1;BCS1388054;1;10
009770;04.04.2021;11:51:54;Stop          ;04.12.2018;FEY;;LION;49;14500;7200;128;4;53;54;8400;3000;3774;3723;1;12550;25.04;28.54;28,8;BCS1388054;1;10
009770;05.04.2021;09:38:00;Ladung auf 60% ;04.12.2018;FEY;;LION;49;14500;7200;192;4;53;54;8400;3000;3686;3686;1;13003;25.14;25.54;26,3;BCS1388054;3;7
009770;05.04.2021;10:06:07;Stop           ;04.12.2018;FEY;;LION;49;14500;7200;128;4;58;60;8400;3000;3764;3763;1;13001;27.54;30.64;31,4;BCS1388054;3;7
009770;22.08.2021;11:08:14;Normalcharge  ;04.12.2018;FEY;;LION;49;14500;7200;192;4;54;55;8400;3000;3700;3699;1;12998;29.94;29.54;32,2;BCS1388054;6;12
009770;22.08.2021;11:08:46;Stop          ;04.12.2018;FEY;;LION;49;14500;7200;128;4;54;55;8400;3000;3733;3714;1;12789;29.94;30.54;32,5;BCS1388054;6;12
009770;25.08.2021;08:13:04;Normalcharge  ;04.12.2018;FEY;;LION;49;14500;7200;192;4;52;53;8400;3000;3680;3679;1;13016;30.44;31.34;32,4;BCS1388054;7;7
009770;25.08.2021;08:13:16;Stop          ;04.12.2018;FEY;;LION;49;14500;7200;192;4;52;53;8400;3000;3680;3679;1;13005;30.44;31.54;32,5;BCS1388054;7;7
009770;25.08.2021;08:14:41;Charge to 60% ;04.12.2018;FEY;;LION;49;14500;7200;192;4;52;53;8400;3000;3680;3679;1;13020;30.54;31.74;33,0;BCS1388054;7;7
009770;25.08.2021;08:37:46;Stop          ;04.12.2018;FEY;;LION;49;14500;7200;128;4;57;58;8400;3000;3824;3774;1;12750;32.34;39.74;36,1;BCS1388054;7;7
009770;25.08.2021;08:38:03;Charge to 60% ;04.12.2018;FEY;;LION;49;14500;7200;128;4;57;58;8400;3000;3741;3743;1;13020;32.44;38.74;36,1;BCS1388054;7;7
009770;25.08.2021;13:26:36;Stop          ;04.12.2018;FEY;;LION;49;14500;7200;192;4;58;60;8400;3000;3747;3747;1;13020;32.74;34.04;36,4;BCS1388054;7;7
009770;01.11.2021;09:51:55;Normalcharge  ;04.12.2018;FEY;;LION;49;14500;7200;192;4;56;57;8400;3000;3717;3717;1;13005;25.84;26.74;26,3;BCS1388054;6;2
009770;01.11.2021;09:53:45;Stop          ;04.12.2018;FEY;;LION;49;14500;7200;128;4;56;57;8400;3000;3813;3764;1;12642;25.94;31.44;27,3;BCS1388054;6;2
009770;01.11.2021;10:02:24;Normalcharge  ;04.12.2018;FEY;;LION;49;14500;7200;192;4;56;57;8400;3000;3722;3722;1;12999;26.04;30.04;29,5;BCS1388054;6;2
009770;01.11.2021;10:03:07;Stop          ;04.12.2018;FEY;;LION;49;14500;7200;128;4;56;57;8400;3000;3809;3759;1;12645;26.04;31.44;29,3;BCS1388054;6;2

File: 009774.txt
Serialnumber ; Date ; Time ; Action ; Date of Manufacture ; Manufacturer ; Battery Name ; Device-Chemistry ; Specification-Info ; Design-Capacity [mAh] ; Design-Voltage [mV] ; Battery Status ; Cycle Count ; SOC [%] ; Relativ SOC[%] ; Desired Voltage [mV]; Desired Current [mA]; Cell Voltage 1 [mV] ; Cell Voltage 2 [mV] ; Max_Error [%] ; Busvoltage[mV] ; Battery Temperature [°C] ; Charger Temperature [°C] ; Batterysystem ; Case ; PLace
009774;07.12.2020;04:14:21;Cycle         ;04.12.2018;FEY;;LION;49;14500;7200;224;2;97;99;8400;;4144;4144;1;13002;25.74;28.74;30,3;BCS1388054;2;3
009774;08.12.2020;16:19:44;Stop          ;04.12.2018;FEY;;LION;49;14500;7200;224;3;97;100;8400;;4152;4154;1;13003;27.84;30.34;31,9;BCS1388054;2;3
009774;03.03.2021;08:17:40;Normalcharge  ;04.12.2018;FEY;;LION;49;14500;7200;192;3;69;71;8400;3000;3860;3861;1;13002;23.24;23.84;23,6;BCS1388054;6;8
009774;03.03.2021;11:56:52;Stop          ;04.12.2018;FEY;;LION;49;14500;7200;224;3;97;100;8400;;4159;4162;1;12997;28.74;29.84;31,7;BCS1388054;6;8
009774;04.04.2021;11:50:39;Normalcharge  ;04.12.2018;FEY;;LION;49;14500;7200;192;4;54;56;8400;3000;3714;3715;1;12991;25.04;26.84;28,1;BCS1388054;1;12
009774;04.04.2021;11:51:54;Stop          ;04.12.2018;FEY;;LION;49;14500;7200;128;4;55;57;8400;3000;3803;3757;1;12547;25.14;28.64;28,8;BCS1388054;1;12
009774;05.04.2021;09:37:37;Charge to 60% ;04.12.2018;FEY;;LION;49;14500;7200;192;4;55;57;8400;3000;3716;3717;1;12992;25.24;26.54;26,0;BCS1388054;1;12
009774;05.04.2021;10:01:53;Stop          ;04.12.2018;FEY;;LION;49;14500;7200;192;4;58;60;8400;3000;3766;3766;1;12989;26.84;28.04;31,2;BCS1388054;1;12
009774;22.08.2021;11:08:18;Normalcharge  ;04.12.2018;FEY;;LION;49;14500;7200;192;4;55;57;8400;3000;3706;3707;1;13018;29.94;30.14;32,2;BCS1388054;7;3
009774;22.08.2021;11:08:50;Stop          ;04.12.2018;FEY;;LION;49;14500;7200;128;4;55;57;8400;3000;3727;3717;1;12849;29.94;31.34;32,6;BCS1388054;7;3
009774;25.08.2021;08:15:19;Charge to 60% ;04.12.2018;FEY;;LION;49;14500;7200;192;4;55;57;8400;3000;3706;3707;1;12991;30.34;32.94;33,5;BCS1388054;2;2
009774;25.08.2021;10:43:16;Stop          ;04.12.2018;FEY;;LION;49;14500;7200;192;4;58;60;8400;3000;3741;3742;1;12991;32.74;35.64;36,4;BCS1388054;2;2
009774;01.11.2021;09:52:15;Normalcharge  ;04.12.2018;FEY;;LION;49;14500;7200;192;4;55;57;8400;3000;3712;3713;1;12995;25.94;26.54;26,3;BCS1388054;2;17
009774;01.11.2021;09:53:18;Stop          ;04.12.2018;FEY;;LION;49;14500;7200;128;4;55;57;8400;3000;3802;3753;1;12486;25.94;29.44;26,8;BCS1388054;2;17
009774;01.11.2021;10:02:05;Normalcharge  ;04.12.2018;FEY;;LION;49;14500;7200;192;4;55;57;8400;3000;3714;3716;1;12990;26.04;28.24;29,5;BCS1388054;2;17
009774;01.11.2021;10:03:24;Stop          ;04.12.2018;FEY;;LION;49;14500;7200;128;4;55;57;8400;3000;3807;3760;1;12481;26.14;31.24;29,3;BCS1388054;2;17

File: 009776.txt
Serialnumber ; Date ; Time ; Action ; Date of Manufacture ; Manufacturer ; Battery Name ; Device-Chemistry ; Specification-Info ; Design-Capacity [mAh] ; Design-Voltage [mV] ; Battery Status ; Cycle Count ; SOC [%] ; Relativ SOC[%] ; Desired Voltage [mV]; Desired Current [mA]; Cell Voltage 1 [mV] ; Cell Voltage 2 [mV] ; Max_Error [%] ; Busvoltage[mV] ; Battery Temperature [°C] ; Charger Temperature [°C] ; Batterysystem ; Case ; PLace
009776;12.01.2021;04:17:28;Ladung auf 90% ;04.12.2018;FEY;;LION;49;14500;7200;16576;3;95;97;;;4136;4136;1;13010;23.34;24.34;23,6;BCS1388054;3;13
009776;12.01.2021;04:57:30;Stop           ;04.12.2018;FEY;;LION;49;14500;7200;192;3;88;90;8400;3000;4063;4061;1;13005;27.34;31.74;31,5;BCS1388054;3;13
009776;12.01.2021;05:21:45;Cycle          ;04.12.2018;FEY;;LION;49;14500;7200;192;3;88;90;8400;3000;4068;4067;1;13006;27.34;29.54;30,4;BCS1388054;3;13
009776;13.01.2021;08:23:25;Stop           ;04.12.2018;FEY;;LION;49;14500;7200;224;4;97;100;8400;;4156;4155;1;13005;27.34;29.34;31,4;BCS1388054;3;13
009776;03.03.2021;08:17:46;Normalcharge  ;04.12.2018;FEY;;LION;49;14500;7200;192;5;31;33;8400;3000;3565;3563;1;13029;23.34;23.94;23,6;BCS1388054;7;10
009776;03.03.2021;10:54:05;Stop          ;04.12.2018;FEY;;LION;49;14500;7200;128;5;64;67;8400;3000;3915;3865;1;12694;30.94;34.74;31,4;BCS1388054;7;10
009776;03.03.2021;10:55:49;Normalcharge  ;04.12.2018;FEY;;LION;49;14500;7200;192;5;64;67;8400;3000;3832;3831;1;13025;30.84;32.14;30,6;BCS1388054;7;10
009776;03.03.2021;17:03:24;Stop          ;04.12.2018;FEY;;LION;49;14500;7200;224;5;98;100;8400;;4153;4154;1;13024;26.54;27.74;31,4;BCS1388054;7;10
009776;04.04.2021;11:50:28;Normalcharge  ;04.12.2018;FEY;;LION;49;14500;7200;224;5;96;99;8400;;4131;4132;1;12996;25.24;25.54;27,9;BCS1388054;3;6
009776;04.04.2021;11:51:43;Stop           ;04.12.2018;FEY;;LION;49;14500;7200;224;5;96;99;8400;;4131;4132;1;12781;25.24;25.74;28,6;BCS1388054;3;6
009776;22.08.2021;11:37:30;Normalcharge  ;04.12.2018;FEY;;LION;49;14500;7200;192;5;93;95;8400;3000;4080;4080;1;12999;21.54;29.24;31,9;BCS1388054;3;12
009776;22.08.2021;11:38:19;Stop           ;04.12.2018;FEY;;LION;49;14500;7200;128;5;93;95;8400;3000;4134;4113;1;12552;21.74;30.54;32,1;BCS1388054;3;12
009776;12.10.2021;12:58:56;Normalcharge  ;04.12.2018;FEY;;LION;49;14500;7200;192;5;90;93;8400;3000;4067;4067;1;13003;23.74;27.44;28,5;BCS1388054;6;9
009776;12.10.2021;12:59:25;Stop          ;04.12.2018;FEY;;LION;49;14500;7200;192;5;90;93;8400;3000;4067;4067;1;12973;23.84;28.34;28,6;BCS1388054;6;9
009776;14.10.2021;12:40:08;Normalcharge  ;04.12.2018;FEY;;LION;49;14500;7200;192;5;90;93;8400;3000;4067;4066;1;13016;25.64;26.94;27,9;BCS1388054;4;16
009776;14.10.2021;12:41:44;Stop          ;04.12.2018;FEY;;LION;49;14500;7200;128;5;91;93;8400;3000;4135;4106;1;12680;25.74;29.64;28,4;BCS1388054;4;16

File: 009784.txt
Serialnumber ; Date ; Time ; Action ; Date of Manufacture ; Manufacturer ; Battery Name ; Device-Chemistry ; Specification-Info ; Design-Capacity [mAh] ; Design-Voltage [mV] ; Battery Status ; Cycle Count ; SOC [%] ; Relativ SOC[%] ; Desired Voltage [mV]; Desired Current [mA]; Cell Voltage 1 [mV] ; Cell Voltage 2 [mV] ; Max_Error [%] ; Busvoltage[mV] ; Battery Temperature [°C] ; Charger Temperature [°C] ; Batterysystem ; Case ; PLace
009784;07.02.2021;08:46:42;Normalcharge  ;04.12.2018;FEY;;LION;49;14500;7200;192;3;95;98;8400;;4118;4118;1;12991;23.94;26.74;29,2;BCS1388054;1;2
009784;07.02.2021;11:52:07;Stop          ;04.12.2018;FEY;;LION;49;14500;7200;192;3;95;98;8400;;4119;4118;1;12991;25.94;27.84;29,7;BCS1388054;1;2
009784;03.03.2021;08:17:21;Normalcharge  ;04.12.2018;FEY;;LION;49;14500;7200;192;3;90;93;8400;3000;4069;4069;1;13001;23.34;22.84;23,5;BCS1388054;3;6
009784;04.03.2021;07:53:40;Stop           ;04.12.2018;FEY;;LION;49;14500;7200;224;3;97;100;8400;;4148;4148;1;12994;26.54;26.64;31,5;BCS1388054;3;6
009784;04.04.2021;11:50:10;Normalcharge  ;04.12.2018;FEY;;LION;49;14500;7200;192;4;53;55;8400;3000;3696;3695;1;13018;25.24;26.94;27,8;BCS1388054;5;5
009784;04.04.2021;11:51:30;Stop          ;04.12.2018;FEY;;LION;49;14500;7200;128;4;53;55;8400;3000;3783;3736;1;12688;25.24;29.54;28,5;BCS1388054;5;5
009784;05.04.2021;09:38:00;Ladung auf 60% ;04.12.2018;FEY;;LION;49;14500;7200;192;4;53;55;8400;3000;3698;3698;1;13003;25.24;25.74;26,3;BCS1388054;3;9
009784;05.04.2021;10:06:07;Stop           ;04.12.2018;FEY;;LION;49;14500;7200;192;4;57;60;8400;3000;3761;3761;1;13002;27.34;29.04;31,4;BCS1388054;3;9
009784;22.08.2021;11:08:19;Normalcharge  ;04.12.2018;FEY;;LION;49;14500;7200;192;4;53;56;8400;3000;3703;3703;1;13025;29.94;30.24;32,2;BCS1388054;7;18
009784;22.08.2021;11:08:51;Stop          ;04.12.2018;FEY;;LION;49;14500;7200;128;4;53;56;8400;3000;3732;3715;1;12845;29.94;31.44;32,6;BCS1388054;7;18
009784;25.08.2021;08:15:08;Charge to 60% ;04.12.2018;FEY;;LION;49;14500;7200;192;4;53;55;8400;3000;3703;3703;1;12998;30.64;31.64;33,4;BCS1388054;4;8
009784;25.08.2021;12:59:17;Stop          ;04.12.2018;FEY;;LION;49;14500;7200;192;4;57;60;8400;3000;3756;3756;1;12996;33.14;34.24;36,6;BCS1388054;4;8
009784;01.11.2021;09:52:21;Normalcharge  ;04.12.2018;FEY;;LION;49;14500;7200;192;4;55;57;8400;3000;3724;3724;1;12996;26.14;27.14;26,4;BCS1388054;1;8
009784;01.11.2021;09:53:14;Stop          ;04.12.2018;FEY;;LION;49;14500;7200;128;4;55;57;8400;3000;3807;3762;1;12477;26.14;29.34;26,8;BCS1388054;1;8
009784;01.11.2021;10:01:59;Normalcharge  ;04.12.2018;FEY;;LION;49;14500;7200;192;4;55;57;8400;3000;3726;3726;1;12991;26.34;28.94;29,5;BCS1388054;1;8
009784;01.11.2021;10:03:29;Stop          ;04.12.2018;FEY;;LION;49;14500;7200;128;4;55;58;8400;3000;3814;3769;1;12466;26.34;31.54;29,3;BCS1388054;1;8

File: 009822.txt
Serialnumber ; Date ; Time ; Action ; Date of Manufacture ; Manufacturer ; Battery Name ; Device-Chemistry ; Specification-Info ; Design-Capacity [mAh] ; Design-Voltage [mV] ; Battery Status ; Cycle Count ; SOC [%] ; Relativ SOC[%] ; Desired Voltage [mV]; Desired Current [mA]; Cell Voltage 1 [mV] ; Cell Voltage 2 [mV] ; Max_Error [%] ; Busvoltage[mV] ; Battery Temperature [°C] ; Charger Temperature [°C] ; Batterysystem ; Case ; PLace
009822;07.12.2020;04:14:25;Cycle          ;04.12.2018;FEY;;LION;49;14500;7200;224;2;97;99;8400;;4137;4139;1;13000;25.44;27.54;30,3;BCS1388054;3;2
009822;08.12.2020;16:19:50;Stop           ;04.12.2018;FEY;;LION;49;14500;7200;224;4;97;100;8400;;4150;4153;1;12999;27.74;29.34;31,9;BCS1388054;3;2
009822;03.03.2021;08:17:29;Normalcharge  ;04.12.2018;FEY;;LION;49;14500;7200;192;4;86;89;8400;3000;4025;4026;1;13009;22.94;23.84;23,5;BCS1388054;4;7
009822;03.03.2021;10:32:46;Stop          ;04.12.2018;FEY;;LION;49;14500;7200;224;4;97;100;8400;;4155;4157;1;13004;28.24;30.34;32,0;BCS1388054;4;7
009822;04.04.2021;11:50:33;Normalcharge  ;04.12.2018;FEY;;LION;49;14500;7200;192;4;59;61;8400;3000;3756;3761;1;13001;24.74;26.74;27,9;BCS1388054;2;12
009822;04.04.2021;11:51:48;Stop          ;04.12.2018;FEY;;LION;49;14500;7200;128;4;59;61;8400;3000;3849;3807;1;12580;24.84;28.74;28,6;BCS1388054;2;12
009822;05.04.2021;09:37:37;Charge to 60% ;04.12.2018;FEY;;LION;49;14500;7200;192;4;59;61;8400;3000;3760;3764;1;12993;24.84;25.74;26,0;BCS1388054;1;4
009822;05.04.2021;10:01:53;Stop          ;04.12.2018;FEY;;LION;49;14500;7200;192;4;58;60;8400;3000;3743;3746;1;12991;25.64;27.84;31,2;BCS1388054;1;4
009822;22.08.2021;11:08:18;Normalcharge  ;04.12.2018;FEY;;LION;49;14500;7200;192;4;54;55;8400;3000;3701;3703;1;13024;29.64;30.24;32,2;BCS1388054;7;7
009822;22.08.2021;11:08:51;Stop          ;04.12.2018;FEY;;LION;49;14500;7200;128;4;54;55;8400;3000;3731;3716;1;12842;29.64;31.54;32,6;BCS1388054;7;7
009822;25.08.2021;08:15:15;Ladung auf 60% ;04.12.2018;FEY;;LION;49;14500;7200;192;4;54;56;8400;3000;3701;3702;1;12993;30.04;30.44;33,4;BCS1388054;3;11
009822;25.08.2021;08:40:44;Stop           ;04.12.2018;FEY;;LION;49;14500;7200;192;4;58;60;8400;3000;3753;3756;1;12994;31.94;32.64;36,1;BCS1388054;3;11
009822;01.11.2021;09:52:00;Normalcharge  ;04.12.2018;FEY;;LION;49;14500;7200;192;4;55;57;8400;3000;3718;3719;1;13015;25.54;26.14;26,3;BCS1388054;5;2
009822;01.11.2021;09:53:40;Stop          ;04.12.2018;FEY;;LION;49;14500;7200;128;4;56;58;8400;3000;3813;3764;1;12616;25.64;30.54;27,3;BCS1388054;5;2
009822;01.11.2021;10:02:19;Normalcharge  ;04.12.2018;FEY;;LION;49;14500;7200;192;4;56;58;8400;3000;3723;3724;1;13010;25.74;29.04;29,5;BCS1388054;5;2
009822;01.11.2021;10:03:11;Stop          ;04.12.2018;FEY;;LION;49;14500;7200;128;4;56;58;8400;3000;3810;3765;1;12612;25.74;31.04;29,3;BCS1388054;5;2

File: 009839.txt
Serialnumber ; Date ; Time ; Action ; Date of Manufacture ; Manufacturer ; Battery Name ; Device-Chemistry ; Specification-Info ; Design-Capacity [mAh] ; Design-Voltage [mV] ; Battery Status ; Cycle Count ; SOC [%] ; Relativ SOC[%] ; Desired Voltage [mV]; Desired Current [mA]; Cell Voltage 1 [mV] ; Cell Voltage 2 [mV] ; Max_Error [%] ; Busvoltage[mV] ; Battery Temperature [°C] ; Charger Temperature [°C] ; Batterysystem ; Case ; PLace
009839;01.12.2020;07:38:36;Cycle         ;03.12.2018;FEY;;LION;49;14500;7200;192;3;41;41;8400;3000;3601;3602;1;13009;24.94;26.34;28,8;BCS1388054;2;3
009839;02.12.2020;16:21:01;Stop          ;03.12.2018;FEY;;LION;49;14500;7200;224;4;97;99;8400;;4154;4155;1;13003;26.04;29.14;29,3;BCS1388054;2;3
009839;03.03.2021;08:17:35;Normalcharge  ;03.12.2018;FEY;;LION;49;14500;7200;192;5;76;79;8400;3000;3923;3924;1;13006;22.54;22.84;23,6;BCS1388054;5;6
009839;03.03.2021;11:26:36;Stop          ;03.12.2018;FEY;;LION;49;14500;7200;224;5;97;100;8400;;4156;4156;1;13001;27.44;27.64;31,5;BCS1388054;5;6
009839;04.04.2021;11:50:39;Normalcharge  ;03.12.2018;FEY;;LION;49;14500;7200;192;5;53;55;8400;3000;3694;3695;1;12998;24.34;27.74;28,1;BCS1388054;1;15
009839;04.04.2021;11:51:54;Stop          ;03.12.2018;FEY;;LION;49;14500;7200;128;5;53;55;8400;3000;3784;3734;1;12551;24.44;30.64;28,8;BCS1388054;1;15
009839;05.04.2021;09:38:00;Ladung auf 60% ;03.12.2018;FEY;;LION;49;14500;7200;192;5;53;55;8400;3000;3697;3697;1;13004;24.54;25.74;26,3;BCS1388054;3;12
009839;05.04.2021;10:06:07;Stop           ;03.12.2018;FEY;;LION;49;14500;7200;192;5;57;60;8400;3000;3763;3762;1;13001;26.64;28.04;31,4;BCS1388054;3;12
009839;22.08.2021;11:07:51;Normalcharge  ;03.12.2018;FEY;;LION;49;14500;7200;192;5;49;51;8400;3000;3650;3650;1;12992;21.94;30.84;32,0;BCS1388054;1;14
009839;22.08.2021;11:08:24;Stop          ;03.12.2018;FEY;;LION;49;14500;7200;128;5;49;51;8400;3000;3705;3675;1;12592;22.04;32.04;32,4;BCS1388054;1;14
009839;25.08.2021;08:15:02;Charge to 60% ;03.12.2018;FEY;;LION;49;14500;7200;192;5;49;51;8400;3000;3653;3653;1;12994;29.64;31.14;33,2;BCS1388054;5;10
009839;25.08.2021;13:03:31;Stop          ;03.12.2018;FEY;;LION;49;14500;7200;192;5;58;60;8400;3000;3728;3728;1;12992;32.24;33.44;36,6;BCS1388054;5;10
009839;01.11.2021;09:52:21;Normalcharge  ;03.12.2018;FEY;;LION;49;14500;7200;192;5;54;56;8400;3000;3700;3701;1;12997;25.34;27.44;26,4;BCS1388054;1;15
009839;01.11.2021;09:53:14;Stop          ;03.12.2018;FEY;;LION;49;14500;7200;128;5;54;56;8400;3000;3788;3741;1;12455;25.34;29.94;26,8;BCS1388054;1;15
009839;01.11.2021;10:01:59;Normalcharge  ;03.12.2018;FEY;;LION;49;14500;7200;192;5;54;56;8400;3000;3702;3703;1;12992;25.44;29.44;29,5;BCS1388054;1;15
009839;01.11.2021;10:03:29;Stop          ;03.12.2018;FEY;;LION;49;14500;7200;128;5;54;56;8400;3000;3795;3748;1;12455;25.54;32.54;29,3;BCS1388054;1;15