Folder: Battery_sort_V2/reader/backup_20211101/Batterieverzeichnis_new

Note: reader/backup_20211101/Batterieverzeichnis_new/000000.txt
Serialnumber ; Date ; Time ; Action ; Date of Manufacture ; Manufacturer ; Battery Name ; Device-Chemistry ; Specification-Info ; Design-Capacity [mAh] ; Design-Voltage [mV] ; Battery Status ; Cycle Count ; SOC [%] ; Relativ SOC[%] ; Desired Voltage [mV]; Desired Current [mA]; Cell Voltage 1 [mV] ; Cell Voltage 2 [mV] ; Max_Error [%] ; Busvoltage[mV] ; Battery Temperature [°C] ; Charger Temperature [°C] ; Batterysystem ; Case ; PLace
000000;12.01.2021;04:16:00;Charge to 90% ;00.00.1980;FEY;;LION;;14500;7200;192;2;94;96;8400;;;;1;13013;23.34;12.84;23,0;BCS1388054;1;13
000000;08.04.2021;07:58:12;Normalcharge  ;00.00.1980;FEY;;LION;;14500;7200;2768;5;;;8400;3000;;;1;13009;25.14;14.74;26,3;BCS1388054;4;13

Note: reader/backup_20211101/Batterieverzeichnis_new/009557.txt
Serialnumber ; Date ; Time ; Action ; Date of Manufacture ; Manufacturer ; Battery Name ; Device-Chemistry ; Specification-Info ; Design-Capacity [mAh] ; Design-Voltage [mV] ; Battery Status ; Cycle Count ; SOC [%] ; Relativ SOC[%] ; Desired Voltage [mV]; Desired Current [mA]; Cell Voltage 1 [mV] ; Cell Voltage 2 [mV] ; Max_Error [%] ; Busvoltage[mV] ; Battery Temperature [°C] ; Charger Temperature [°C] ; Batterysystem ; Case ; PLace
009557;25.08.2021;08:38:03;Charge to 60% ;04.12.2018;FEY;;LION;49;14500;7200;144;2;2;2;8400;3000;3063;3064;1;13015;27.84;34.24;36,1;BCS1388054;7;15
009557;25.08.2021;13:26:36;Stop          ;04.12.2018;FEY;;LION;49;14500;7200;128;2;58;60;8400;3000;3862;3812;1;13014;35.24;38.94;36,4;BCS1388054;7;15
009557;01.11.2021;09:52:06;Normalcharge  ;04.12.2018;FEY;;LION;49;14500;7200;192;2;52;52;8400;3000;3674;3674;1;13017;24.34;25.74;26,3;BCS1388054;4;16
009557;01.11.2021;09:53:35;Stop          ;04.12.2018;FEY;;LION;49;14500;7200;128;2;53;53;8400;3000;3763;3717;1;12611;24.34;28.94;27,1;BCS1388054;4;16
009557;01.11.2021;10:02:14;Normalcharge  ;04.12.2018;FEY;;LION;49;14500;7200;192;2;53;53;8400;3000;3677;3677;1;13012;24.64;27.74;29,5;BCS1388054;4;16
009557;01.11.2021;10:03:16;Stop          ;04.12.2018;FEY;;LION;49;14500;7200;128;2;53;53;8400;3000;3763;3717;1;12580;24.74;30.04;29,3;BCS1388054;4;16

Note: reader/backup_20211101/Batterieverzeichnis_new/009582.txt
Serialnumber ; Date ; Time ; Action ; Date of Manufacture ; Manufacturer ; Battery Name ; Device-Chemistry ; Specification-Info ; Design-Capacity [mAh] ; Design-Voltage [mV] ; Battery Status ; Cycle Count ; SOC [%] ; Relativ SOC[%] ; Desired Voltage [mV]; Desired Current [mA]; Cell Voltage 1 [mV] ; Cell Voltage 2 [mV] ; Max_Error [%] ; Busvoltage[mV] ; Battery Temperature [°C] ; Charger Temperature [°C] ; Batterysystem ; Case ; PLace
009582;25.08.2021;08:13:04;Normalcharge  ;04.12.2018;FEY;;LION;49;14500;7200;2768;2;;;8400;3000;2831;2897;1;13023;30.24;30.84;32,4;BCS1388054;7;16
009582;25.08.2021;08:13:16;Stop          ;04.12.2018;FEY;;LION;49;14500;7200;2768;2;;;8400;3000;2831;2897;1;13012;30.24;31.04;32,5;BCS1388054;7;16
009582;25.08.2021;08:14:41;Charge to 60% ;04.12.2018;FEY;;LION;49;14500;7200;2768;2;;;8400;3000;2835;2899;1;13022;30.24;31.14;33,0;BCS1388054;7;16
009582;25.08.2021;08:37:46;Stop          ;04.12.2018;FEY;;LION;49;14500;7200;144;2;2;2;8400;3000;3452;3408;1;12727;31.54;37.94;36,1;BCS1388054;7;16
009582;25.08.2021;08:38:03;Charge to 60% ;04.12.2018;FEY;;LION;49;14500;7200;144;2;2;2;8400;3000;3354;3362;1;13022;31.64;37.24;36,1;BCS1388054;7;16
009582;25.08.2021;13:26:36;Stop          ;04.12.2018;FEY;;LION;49;14500;7200;192;2;57;60;8400;3000;3795;3795;1;13021;33.94;33.14;36,4;BCS1388054;7;16

Note: reader/backup_20211101/Batterieverzeichnis_new/009603.txt
009603;29.11.2020;04:33:37;Cycle          ;03.12.2018;FEY;;LION;49;14500;7200;224;2;98;99;8400;;4122;4123;1;13016;22.84;24.84;27,4;BCS1388054;3;3
009603;07.02.2021;08:46:42;Normalcharge  ;03.12.2018;FEY;;LION;49;14500;7200;192;3;95;98;8400;;4119;4121;1;13006;23.54;26.04;29,2;BCS1388054;1;6
009603;07.02.2021;11:52:07;Stop          ;03.12.2018;FEY;;LION;49;14500;7200;192;3;95;98;8400;;4119;4121;1;13006;25.44;26.54;29,7;BCS1388054;1;6
009603;03.03.2021;08:17:21;Normalcharge  ;03.12.2018;FEY;;LION;49;14500;7200;192;3;90;93;8400;3000;4070;4071;1;12999;22.94;23.54;23,5;BCS1388054;3;8
009603;04.03.2021;07:53:40;Stop           ;03.12.2018;FEY;;LION;49;14500;7200;224;3;97;100;8400;;4147;4149;1;12994;26.34;28.34;31,5;BCS1388054;3;8
009603;04.04.2021;11:50:33;Normalcharge  ;03.12.2018;FEY;;LION;49;14500;7200;224;3;96;99;8400;;4132;4134;1;12991;24.74;26.64;27,9;BCS1388054;2;15
009603;04.04.2021;11:51:48;Stop          ;03.12.2018;FEY;;LION;49;14500;7200;224;3;96;99;8400;;4132;4134;1;12590;24.74;26.94;28,6;BCS1388054;2;15
009603;22.08.2021;11:37:25;Normalcharge  ;03.12.2018;FEY;;LION;49;14500;7200;192;4;29;31;8400;3000;3561;3561;1;12991;20.94;28.54;31,9;BCS1388054;4;5
009603;22.08.2021;11:38:13;Stop          ;03.12.2018;FEY;;LION;49;14500;7200;128;4;29;31;8400;3000;3636;3595;1;12618;21.04;30.54;32,1;BCS1388054;4;5
009603;25.08.2021;08:15:08;Charge to 60% ;03.12.2018;FEY;;LION;49;14500;7200;192;4;29;31;8400;3000;3562;3562;1;12989;30.14;31.64;33,4;BCS1388054;4;5
009603;25.08.2021;12:59:17;Stop          ;03.12.2018;FEY;;LION;49;14500;7200;192;4;56;60;8400;3000;3740;3740;1;12989;32.54;33.64;36,6;BCS1388054;4;5
009603;01.11.2021;09:52:14;Normalcharge  ;03.12.2018;FEY;;LION;49;14500;7200;192;4;51;55;8400;3000;3706;3707;1;13014;25.54;26.04;26,3;BCS1388054;2;6
009603;01.11.2021;09:53:17;Stop          ;03.12.2018;FEY;;LION;49;14500;7200;128;4;51;55;8400;3000;3795;3748;1;12527;25.54;28.14;26,8;BCS1388054;2;6
009603;01.11.2021;10:02:05;Normalcharge  ;03.12.2018;FEY;;LION;49;14500;7200;192;4;51;55;8400;3000;3709;3709;1;13008;25.74;26.94;29,5;BCS1388054;2;6
009603;01.11.2021;10:03:24;Stop          ;03.12.2018;FEY;;LION;49;14500;7200;128;4;51;55;8400;3000;3800;3751;1;12515;25.74;28.94;29,3;BCS1388054;2;6

File: 001023.txt
Serialnumber ; Date ; Time ; Action ; Date of Manufacture ; Manufacturer ; Battery Name ; Device-Chemistry ; Specification-Info ; Design-Capacity [mAh] ; Design-Voltage [mV] ; Battery Status ; Cycle Count ; SOC [%] ; Relativ SOC[%] ; Desired Voltage [mV]; Desired Current [mA]; Cell Voltage 1 [mV] ; Cell Voltage 2 [mV] ; Max_Error [%] ; Busvoltage[mV] ; Battery Temperature [°C] ; Charger Temperature [°C] ; Batterysystem ; Case ; PLace
001023;13.12.2019;13:53:33;Fastcharge    ;28.11.2017;FEY;;LION;49;14500;7200;192;21;94;99;8400;3000;4115;4115;1;13023;22.04;34.54;35,8;BCS1388054;7;15
001023;13.12.2019;13:55:00;Stop          ;28.11.2017;FEY;;LION;49;14500;7200;128;21;94;99;8400;3000;4164;4145;1;12757;22.34;35.24;36,1;BCS1388054;7;15
001023;13.12.2019;13:55:04;Charge to 10% ;28.11.2017;FEY;;LION;49;14500;7200;128;21;94;99;8400;3000;4162;4146;1;13023;22.44;35.24;36,1;BCS1388054;7;15
001023;13.12.2019;13:55:27;Stop          ;28.11.2017;FEY;;LION;49;14500;7200;192;21;93;99;8400;3000;4073;4095;1;13424;22.44;34.24;36,1;BCS1388054;7;15
001023;13.12.2019;13:55:29;Fastcharge    ;28.11.2017;FEY;;LION;49;14500;7200;192;21;93;99;8400;3000;4073;4095;1;13424;22.44;34.24;36,1;BCS1388054;7;15
001023;13.12.2019;13:55:29;Stop          ;28.11.2017;FEY;;LION;49;14500;7200;192;21;93;99;8400;3000;4073;4095;1;13424;22.44;34.24;36,1;BCS1388054;7;15
001023;13.12.2019;13:55:33;Normalcharge  ;28.11.2017;FEY;;LION;49;14500;7200;192;21;93;99;8400;3000;4073;4095;1;13037;22.44;34.34;36,1;BCS1388054;7;15
001023;13.12.2019;13:55:39;Fastcharge    ;28.11.2017;FEY;;LION;49;14500;7200;192;21;93;99;8400;3000;4116;4116;1;13000;22.54;34.34;36,1;BCS1388054;7;15
001023;13.12.2019;13:55:39;Stop          ;28.11.2017;FEY;;LION;49;14500;7200;192;21;93;99;8400;3000;4116;4116;1;13000;22.54;34.34;36,1;BCS1388054;7;15
001023;13.12.2019;13:56:34;Stop          ;28.11.2017;FEY;;LION;49;14500;7200;128;21;93;99;8400;3000;4153;4142;1;12734;22.74;34.54;36,2;BCS1388054;7;15
001023;13.12.2019;13:56:38;Charge to 95% ;28.11.2017;FEY;;LION;49;14500;7200;128;21;93;99;8400;3000;4166;4148;1;13024;22.74;34.54;36,2;BCS1388054;7;15
001023;13.12.2019;13:56:40;Stop          ;28.11.2017;FEY;;LION;49;14500;7200;128;21;93;99;8400;3000;4166;4148;1;13024;22.74;34.54;36,2;BCS1388054;7;15
001023;13.12.2019;13:56:48;Charge to 90% ;28.11.2017;FEY;;LION;49;14500;7200;128;21;93;99;8400;3000;4124;4125;1;13023;22.74;34.24;36,2;BCS1388054;7;15
001023;13.12.2019;15:42:54;Stop          ;28.11.2017;FEY;;LION;49;14500;7200;192;21;85;90;8400;3000;4033;4033;1;12970;29.34;30.94;34,5;BCS1388054;7;15
001023;13.12.2019;15:42:59;Fastcharge    ;28.11.2017;FEY;;LION;49;14500;7200;192;21;85;90;8400;3000;4033;4033;1;13023;29.34;30.94;34,4;BCS1388054;7;15
001023;13.12.2019;21:04:43;Stop          ;28.11.2017;FEY;;LION;49;14500;7200;224;21;95;100;8400;;4153;4152;1;13025;27.24;27.84;31,7;BCS1388054;7;15

File: 001069.txt
Serialnumber ; Date ; Time ; Action ; Date of Manufacture ; Manufacturer ; Battery Name ; Device-Chemistry ; Specification-Info ; Design-Capacity [mAh] ; Design-Voltage [mV] ; Battery Status ; Cycle Count ; SOC [%] ; Relativ SOC[%] ; Desired Voltage [mV]; Desired Current [mA]; Cell Voltage 1 [mV] ; Cell Voltage 2 [mV] ; Max_Error [%] ; Busvoltage[mV] ; Battery Temperature [°C] ; Charger Temperature [°C] ; Batterysystem ; Case ; PLace
001069;10.12.2019;15:29:09;Charge to 30% ;15.02.2018;FEY;;LION;49;14500;7200;224;11;93;99;8400;;4124;4123;1;13010;22.44;25.44;27,1;BCS1388054;6;10
001069;10.12.2019;20:46:41;Stop          ;15.02.2018;FEY;;LION;49;14500;7200;192;11;29;30;8400;3000;3554;3552;1;13005;32.94;34.84;33,6;BCS1388054;6;10
001069;11.12.2019;08:49:03;Fastcharge    ;15.02.2018;FEY;;LION;49;14500;7200;192;11;29;30;8400;3000;3566;3564;1;13008;26.14;28.04;31,9;BCS1388054;6;10
001069;11.12.2019;13:39:30;Stop          ;15.02.2018;FEY;;LION;49;14500;7200;224;11;96;100;8400;;4164;4164;1;13007;29.94;30.24;32,5;BCS1388054;6;10
001069;11.12.2019;15:46:47;Charge to 10% ;15.02.2018;FEY;;LION;49;14500;7200;224;11;98;100;8400;;4157;4157;1;13007;27.04;28.44;31,4;BCS1388054;6;10
001069;11.12.2019;22:52:10;Stop          ;15.02.2018;FEY;;LION;49;14500;7200;192;13;10;10;8400;3000;3350;3348;1;13005;33.74;33.84;33,0;BCS1388054;6;10
001069;12.12.2019;08:45:18;Normalcharge  ;15.02.2018;FEY;;LION;49;14500;7200;192;13;8;9;8400;3000;3362;3360;1;13008;26.34;28.24;31,7;BCS1388054;6;10
001069;12.12.2019;16:41:29;Stop          ;15.02.2018;FEY;;LION;49;14500;7200;224;13;96;100;8400;;4162;4162;1;13007;29.04;29.54;31,5;BCS1388054;6;10
001069;13.12.2019;10:48:09;Charge to 10% ;15.02.2018;FEY;;LION;49;14500;7200;224;13;96;100;8400;;4152;4152;1;13008;26.34;28.34;32,0;BCS1388054;6;10
001069;13.12.2019;13:51:54;Stop          ;15.02.2018;FEY;;LION;49;14500;7200;192;13;58;60;8400;3000;3688;3736;1;13496;34.04;39.74;36,1;BCS1388054;6;10
001069;13.12.2019;13:53:13;Fastcharge    ;15.02.2018;FEY;;LION;49;14500;7200;192;13;58;60;8400;3000;3771;3769;1;13008;34.04;37.54;35,8;BCS1388054;6;10
001069;13.12.2019;13:53:19;Stop          ;15.02.2018;FEY;;LION;49;14500;7200;192;13;58;60;8400;3000;3771;3770;1;13000;34.04;37.34;35,8;BCS1388054;6;10
001069;13.12.2019;13:53:25;Normalcharge  ;15.02.2018;FEY;;LION;49;14500;7200;192;13;58;60;8400;3000;3771;3770;1;13009;34.04;37.34;35,8;BCS1388054;6;10
001069;13.12.2019;20:04:59;Stop          ;15.02.2018;FEY;;LION;49;14500;7200;224;13;96;100;8400;;4157;4158;1;13012;27.74;29.34;32,0;BCS1388054;6;10
001069;16.12.2019;07:43:27;Charge to 10% ;15.02.2018;FEY;;LION;49;14500;7200;224;13;96;100;8400;;4148;4149;1;13014;26.14;27.14;31,7;BCS1388054;6;10
001069;16.12.2019;14:43:10;Stop          ;15.02.2018;FEY;;LION;49;14500;7200;192;14;10;10;8400;3000;3351;3350;1;13013;31.64;32.14;31,7;BCS1388054;6;10
001069;16.12.2019;14:44:21;Charge to 90% ;15.02.2018;FEY;;LION;49;14500;7200;192;14;10;10;8400;3000;3353;3351;1;13013;31.54;31.34;31,9;BCS1388054;6;10
001069;16.12.2019;20:54:26;Stop          ;15.02.2018;FEY;;LION;49;14500;7200;192;14;86;90;8400;3000;4051;4052;1;13013;31.64;32.14;32,1;BCS1388054;6;10
001069;17.12.2019;08:37:57;Fastcharge    ;15.02.2018;FEY;;LION;49;14500;7200;192;14;86;90;8400;3000;4040;4041;1;13014;26.24;28.04;31,6;BCS1388054;6;10
001069;17.12.2019;13:38:40;Charge to 10% ;15.02.2018;FEY;;LION;49;14500;7200;224;14;96;100;8400;;4155;4157;1;13015;26.54;28.04;30,8;BCS1388054;6;10
001069;17.12.2019;20:41:41;Stop          ;15.02.2018;FEY;;LION;49;14500;7200;192;15;10;10;8400;3000;3347;3346;1;13011;33.74;34.74;32,6;BCS1388054;6;10
001069;18.12.2019;08:31:34;Fastcharge    ;15.02.2018;FEY;;LION;49;14500;7200;192;15;8;9;8400;3000;3362;3361;1;13015;26.34;28.14;31,6;BCS1388054;6;10
001069;18.12.2019;14:33:31;Stop          ;15.02.2018;FEY;;LION;49;14500;7200;224;15;95;100;8400;;4162;4165;1;13013;29.84;29.84;31,4;BCS1388054;6;10
001069;19.12.2019;08:24:06;Charge to 60% ;15.02.2018;FEY;;LION;49;14500;7200;224;15;96;100;8400;;4152;4155;1;13014;26.24;28.04;31,5;BCS1388054;6;10
001069;19.12.2019;11:34:24;Stop          ;15.02.2018;FEY;;LION;49;14500;7200;192;16;58;60;8400;3000;3778;3779;1;13012;33.14;33.04;33,5;BCS1388054;6;10
001069;19.12.2019;12:16:53;Cycle         ;15.02.2018;FEY;;LION;49;14500;7200;192;16;58;60;8400;3000;3784;3785;1;13013;30.14;30.24;32,7;BCS1388054;6;10
001069;20.12.2019;17:31:05;Stop          ;15.02.2018;FEY;;LION;49;14500;7200;224;17;95;100;8400;;4155;4154;1;13016;26.64;27.94;30,6;BCS1388054;6;10
001069;06.01.2020;06:34:58;Charge to 60% ;15.02.2018;FEY;;LION;49;14500;7200;192;17;94;98;8400;;4124;4123;1;13015;26.44;28.24;31,9;BCS1388054;6;10
001069;06.01.2020;09:30:42;Stop          ;15.02.2018;FEY;;LION;49;14500;7200;192;18;58;60;8400;3000;3761;3759;1;13013;32.64;36.14;33,7;BCS1388054;6;10
001069;06.01.2020;09:50:46;Fastcharge    ;15.02.2018;FEY;;LION;49;14500;7200;192;18;58;60;8400;3000;3779;3777;1;13014;31.14;30.74;32,7;BCS1388054;6;10
001069;06.01.2020;13:06:22;Stop          ;15.02.2018;FEY;;LION;49;14500;7200;224;18;96;100;8400;;4161;4160;1;13015;29.44;29.84;32,1;BCS1388054;6;10

File: 001083.txt
Serialnumber ; Date ; Time ; Action ; Date of Manufacture ; Manufacturer ; Battery Name ; Device-Chemistry ; Specification-Info ; Design-Capacity [mAh] ; Design-Voltage [mV] ; Battery Status ; Cycle Count ; SOC [%] ; Relativ SOC[%] ; Desired Voltage [mV]; Desired Current [mA]; Cell Voltage 1 [mV] ; Cell Voltage 2 [mV] ; Max_Error [%] ; Busvoltage[mV] ; Battery Temperature [°C] ; Charger Temperature [°C] ; Batterysystem ; Case ; PLace
001083;10.12.2019;15:29:09;Charge to 30% ;15.02.2018;FEY;;LION;49;14500;7200;224;10;93;99;8400;;4124;4123;1;13003;22.84;26.24;27,1;BCS1388054;6;13
001083;10.12.2019;20:46:41;Stop          ;15.02.2018;FEY;;LION;49;14500;7200;192;11;29;30;8400;3000;3559;3558;1;13001;33.94;36.84;33,6;BCS1388054;6;13
001083;11.12.2019;08:49:03;Fastcharge    ;15.02.2018;FEY;;LION;49;14500;7200;192;11;29;30;8400;3000;3568;3568;1;13000;26.74;29.14;31,9;BCS1388054;6;13
001083;11.12.2019;13:39:30;Stop          ;15.02.2018;FEY;;LION;49;14500;7200;224;11;95;100;8400;;4163;4163;1;13001;30.94;31.94;32,5;BCS1388054;6;13
001083;11.12.2019;15:46:47;Charge to 10% ;15.02.2018;FEY;;LION;49;14500;7200;224;11;97;100;8400;;4157;4156;1;13002;27.54;29.64;31,4;BCS1388054;6;13
001083;11.12.2019;22:52:10;Stop          ;15.02.2018;FEY;;LION;49;14500;7200;192;12;10;10;8400;3000;3357;3357;1;13002;34.74;35.84;33,0;BCS1388054;6;13
001083;12.12.2019;08:45:18;Normalcharge  ;15.02.2018;FEY;;LION;49;14500;7200;192;12;9;9;8400;3000;3366;3365;1;13002;26.94;29.34;31,7;BCS1388054;6;13
001083;12.12.2019;16:41:29;Stop          ;15.02.2018;FEY;;LION;49;14500;7200;224;12;96;100;8400;;4161;4160;1;13002;29.94;31.24;31,5;BCS1388054;6;13
001083;13.12.2019;10:48:09;Charge to 10% ;15.02.2018;FEY;;LION;49;14500;7200;224;12;96;100;8400;;4151;4151;1;13001;26.94;29.34;32,0;BCS1388054;6;13
001083;13.12.2019;13:51:54;Stop          ;15.02.2018;FEY;;LION;49;14500;7200;192;13;58;60;8400;3000;3685;3732;1;13486;35.04;45.14;36,1;BCS1388054;6;13
001083;16.12.2019;07:43:34;Charge to 10% ;15.02.2018;FEY;;LION;49;14500;7200;192;13;58;60;8400;3000;3784;3783;1;13033;22.94;25.74;31,7;BCS1388054;7;4
001083;16.12.2019;11:52:34;Stop          ;15.02.2018;FEY;;LION;49;14500;7200;192;14;10;10;8400;3000;3360;3359;1;13031;31.94;31.34;34,7;BCS1388054;7;4
001083;16.12.2019;14:44:25;Charge to 90% ;15.02.2018;FEY;;LION;49;14500;7200;192;14;10;10;8400;3000;3365;3365;1;13031;28.64;28.54;31,7;BCS1388054;7;4
001083;16.12.2019;20:53:58;Stop          ;15.02.2018;FEY;;LION;49;14500;7200;192;14;85;90;8400;3000;4055;4055;1;13032;31.14;29.54;32,1;BCS1388054;7;4
001083;17.12.2019;08:38:01;Fastcharge    ;15.02.2018;FEY;;LION;49;14500;7200;192;14;85;90;8400;3000;4045;4044;1;13032;26.04;27.14;31,6;BCS1388054;7;4
001083;17.12.2019;10:36:25;Stop          ;15.02.2018;FEY;;LION;49;14500;7200;224;14;95;100;8400;;4159;4158;1;13031;27.54;27.94;31,5;BCS1388054;7;4
001083;17.12.2019;13:38:44;Charge to 10% ;15.02.2018;FEY;;LION;49;14500;7200;224;14;95;100;8400;;4153;4152;1;13033;26.44;27.14;30,8;BCS1388054;7;4
001083;17.12.2019;20:42:03;Stop          ;15.02.2018;FEY;;LION;49;14500;7200;192;15;10;10;8400;3000;3361;3360;1;13032;32.84;30.54;32,6;BCS1388054;7;4
001083;18.12.2019;08:31:43;Fastcharge    ;15.02.2018;FEY;;LION;49;14500;7200;192;15;8;9;8400;3000;3369;3369;1;13033;26.24;27.14;31,6;BCS1388054;7;4
001083;18.12.2019;14:30:48;Stop          ;15.02.2018;FEY;;LION;49;14500;7200;224;15;93;100;8400;;4162;4161;1;13032;29.24;28.54;31,6;BCS1388054;7;4
001083;19.12.2019;08:24:17;Charge to 60% ;15.02.2018;FEY;;LION;49;14500;7200;224;15;95;100;8400;;4152;4150;1;13032;26.14;27.14;31,6;BCS1388054;7;4
001083;19.12.2019;11:28:26;Stop          ;15.02.2018;FEY;;LION;49;14500;7200;192;15;57;60;8400;3000;3772;3770;1;13031;32.94;32.64;35,1;BCS1388054;7;4
001083;19.12.2019;12:16:57;Cycle         ;15.02.2018;FEY;;LION;49;14500;7200;192;15;57;60;8400;3000;3786;3785;1;13032;29.64;28.84;32,7;BCS1388054;7;4
001083;20.12.2019;17:22:28;Stop          ;15.02.2018;FEY;;LION;49;14500;7200;224;16;94;100;8400;;4155;4154;1;13032;26.44;27.44;31,9;BCS1388054;7;4
001083;06.01.2020;06:35:02;Charge to 60% ;15.02.2018;FEY;;LION;49;14500;7200;192;16;93;98;8400;;4124;4123;1;13034;26.24;27.14;31,9;BCS1388054;7;4
001083;06.01.2020;09:29:52;Stop          ;15.02.2018;FEY;;LION;49;14500;7200;192;16;57;60;8400;3000;3769;3767;1;13033;32.14;31.74;34,0;BCS1388054;7;4
001083;06.01.2020;09:50:50;Fastcharge    ;15.02.2018;FEY;;LION;49;14500;7200;192;16;57;60;8400;3000;3782;3780;1;13033;30.64;29.34;32,7;BCS1388054;7;4
001083;06.01.2020;13:05:11;Stop          ;15.02.2018;FEY;;LION;49;14500;7200;224;16;95;100;8400;;4160;4160;1;13033;28.84;28.54;32,4;BCS1388054;7;4

File: 007590.txt
Serialnumber ; Date ; Time ; Action ; Date of Manufacture ; Manufacturer ; Battery Name ; Device-Chemistry ; Specification-Info ; Design-Capacity [mAh] ; Design-Voltage [mV] ; Battery Status ; Cycle Count ; SOC [%] ; Relativ SOC[%] ; Desired Voltage [mV]; Desired Current [mA]; Cell Voltage 1 [mV] ; Cell Voltage 2 [mV] ; Max_Error [%] ; Busvoltage[mV] ; Battery Temperature [°C] ; Charger Temperature [°C] ; Batterysystem ; Case ; PLace
007590;13.12.2019;13:53:33;Fastcharge    ;23.10.2017;FEY;;LION;49;14500;7200;192;5;61;67;8400;3000;3839;3838;1;13022;22.44;35.14;35,8;BCS1388054;7;17
007590;13.12.2019;13:55:00;Stop          ;23.10.2017;FEY;;LION;49;14500;7200;128;5;61;67;8400;3000;3963;3898;1;12737;22.84;37.44;36,1;BCS1388054;7;17
007590;13.12.2019;13:55:04;Charge to 10% ;23.10.2017;FEY;;LION;49;14500;7200;128;5;61;67;8400;3000;3964;3900;1;13021;22.84;37.44;36,1;BCS1388054;7;17
007590;13.12.2019;13:55:27;Stop          ;23.10.2017;FEY;;LION;49;14500;7200;192;5;63;68;8400;3000;3810;3833;1;13427;23.04;35.94;36,1;BCS1388054;7;17
007590;13.12.2019;13:55:29;Fastcharge    ;23.10.2017;FEY;;LION;49;14500;7200;192;5;63;68;8400;3000;3810;3833;1;13427;23.04;35.94;36,1;BCS1388054;7;17
007590;13.12.2019;13:55:29;Stop          ;23.10.2017;FEY;;LION;49;14500;7200;192;5;63;68;8400;3000;3810;3833;1;13427;23.04;35.94;36,1;BCS1388054;7;17
007590;13.12.2019;13:55:33;Normalcharge  ;23.10.2017;FEY;;LION;49;14500;7200;192;5;63;68;8400;3000;3810;3833;1;13041;23.04;36.04;36,1;BCS1388054;7;17
007590;13.12.2019;13:55:39;Fastcharge    ;23.10.2017;FEY;;LION;49;14500;7200;192;5;63;68;8400;3000;3847;3846;1;12995;23.04;35.94;36,1;BCS1388054;7;17
007590;13.12.2019;13:55:39;Stop          ;23.10.2017;FEY;;LION;49;14500;7200;192;5;63;68;8400;3000;3847;3846;1;12995;23.04;35.94;36,1;BCS1388054;7;17
007590;13.12.2019;13:56:34;Stop          ;23.10.2017;FEY;;LION;49;14500;7200;128;5;64;68;8400;3000;3964;3899;1;12701;23.34;37.24;36,2;BCS1388054;7;17
007590;13.12.2019;13:56:38;Charge to 95% ;23.10.2017;FEY;;LION;49;14500;7200;128;5;64;68;8400;3000;3965;3899;1;13021;23.34;37.34;36,2;BCS1388054;7;17
007590;13.12.2019;13:56:40;Stop          ;23.10.2017;FEY;;LION;49;14500;7200;128;5;64;68;8400;3000;3965;3899;1;13023;23.34;37.24;36,2;BCS1388054;7;17
007590;13.12.2019;13:56:48;Charge to 90% ;23.10.2017;FEY;;LION;49;14500;7200;128;5;64;68;8400;3000;3853;3854;1;13023;23.34;36.54;36,2;BCS1388054;7;17
007590;13.12.2019;15:42:54;Stop          ;23.10.2017;FEY;;LION;49;14500;7200;192;5;83;90;8400;3000;4035;4035;1;12957;30.84;32.54;34,5;BCS1388054;7;17
007590;13.12.2019;15:42:59;Fastcharge    ;23.10.2017;FEY;;LION;49;14500;7200;192;5;83;90;8400;3000;4035;4035;1;13022;30.84;32.44;34,4;BCS1388054;7;17
007590;13.12.2019;21:04:43;Stop          ;23.10.2017;FEY;;LION;49;14500;7200;224;5;93;100;8400;;4155;4155;1;13024;27.44;28.74;31,7;BCS1388054;7;17

File: 007632.txt
Serialnumber ; Date ; Time ; Action ; Date of Manufacture ; Manufacturer ; Battery Name ; Device-Chemistry ; Specification-Info ; Design-Capacity [mAh] ; Design-Voltage [mV] ; Battery Status ; Cycle Count ; SOC [%] ; Relativ SOC[%] ; Desired Voltage [mV]; Desired Current [mA]; Cell Voltage 1 [mV] ; Cell Voltage 2 [mV] ; Max_Error [%] ; Busvoltage[mV] ; Battery Temperature [°C] ; Charger Temperature [°C] ; Batterysystem ; Case ; PLace
007632;13.12.2019;13:53:33;Fastcharge    ;19.10.2017;FEY;;LION;49;14500;7200;192;5;89;94;8400;3000;4058;4058;1;13028;22.94;33.94;35,8;BCS1388054;7;2
007632;13.12.2019;13:55:00;Stop          ;19.10.2017;FEY;;LION;49;14500;7200;128;5;89;94;8400;3000;4125;4095;1;12779;23.34;35.54;36,1;BCS1388054;7;2
007632;13.12.2019;13:55:04;Charge to 10% ;19.10.2017;FEY;;LION;49;14500;7200;128;5;89;94;8400;3000;4124;4095;1;13028;23.34;35.54;36,1;BCS1388054;7;2
007632;13.12.2019;13:55:27;Stop          ;19.10.2017;FEY;;LION;49;14500;7200;128;5;89;94;8400;3000;4066;4065;1;13365;23.44;34.54;36,1;BCS1388054;7;2
007632;13.12.2019;13:55:29;Fastcharge    ;19.10.2017;FEY;;LION;49;14500;7200;192;5;89;94;8400;3000;4038;4052;1;13437;23.44;34.44;36,1;BCS1388054;7;2
007632;13.12.2019;13:55:29;Stop          ;19.10.2017;FEY;;LION;49;14500;7200;192;5;89;94;8400;3000;4038;4052;1;13437;23.44;34.44;36,1;BCS1388054;7;2
007632;13.12.2019;13:55:33;Normalcharge  ;19.10.2017;FEY;;LION;49;14500;7200;192;5;89;94;8400;3000;4038;4052;1;13346;23.44;34.44;36,1;BCS1388054;7;2
007632;13.12.2019;13:55:39;Fastcharge    ;19.10.2017;FEY;;LION;49;14500;7200;192;5;89;94;8400;3000;4062;4061;1;13019;23.44;34.54;36,1;BCS1388054;7;2
007632;13.12.2019;13:55:39;Stop          ;19.10.2017;FEY;;LION;49;14500;7200;192;5;89;94;8400;3000;4062;4061;1;13019;23.44;34.54;36,1;BCS1388054;7;2
007632;13.12.2019;13:56:34;Stop          ;19.10.2017;FEY;;LION;49;14500;7200;128;5;89;94;8400;3000;4124;4095;1;12763;23.64;35.34;36,2;BCS1388054;7;2
007632;13.12.2019;13:56:38;Charge to 95% ;19.10.2017;FEY;;LION;49;14500;7200;128;5;89;94;8400;3000;4124;4095;1;13029;23.64;35.34;36,2;BCS1388054;7;2
007632;13.12.2019;13:56:40;Stop          ;19.10.2017;FEY;;LION;49;14500;7200;128;5;89;94;8400;3000;4124;4095;1;13028;23.74;35.34;36,2;BCS1388054;7;2
007632;13.12.2019;13:56:48;Charge to 90% ;19.10.2017;FEY;;LION;49;14500;7200;128;5;89;94;8400;3000;4067;4068;1;13029;23.74;34.84;36,2;BCS1388054;7;2
007632;13.12.2019;15:42:54;Stop          ;19.10.2017;FEY;;LION;49;14500;7200;192;5;86;90;8400;3000;4025;4025;1;12978;29.34;31.34;34,5;BCS1388054;7;2
007632;13.12.2019;15:42:59;Fastcharge    ;19.10.2017;FEY;;LION;49;14500;7200;192;5;86;90;8400;3000;4025;4025;1;13030;29.34;31.34;34,4;BCS1388054;7;2
007632;13.12.2019;21:04:43;Stop          ;19.10.2017;FEY;;LION;49;14500;7200;224;5;95;100;8400;;4153;4153;1;13031;27.34;28.64;31,7;BCS1388054;7;2