Folder: Battery_sort_V2/reader/backup_20211101/Batterieverzeichnis_new (part 2)

File: 007654.txt
Serialnumber ; Date ; Time ; Action ; Date of Manufacture ; Manufacturer ; Battery Name ; Device-Chemistry ; Specification-Info ; Design-Capacity [mAh] ; Design-Voltage [mV] ; Battery Status ; Cycle Count ; SOC [%] ; Relativ SOC[%] ; Desired Voltage [mV]; Desired Current [mA]; Cell Voltage 1 [mV] ; Cell Voltage 2 [mV] ; Max_Error [%] ; Busvoltage[mV] ; Battery Temperature [°C] ; Charger Temperature [°C] ; Batterysystem ; Case ; PLace
007654;13.12.2019;13:53:33;Fastcharge    ;19.10.2017;FEY;;LION;49;14500;7200;192;5;88;94;8400;3000;4059;4059;1;13034;22.74;33.04;35,8;BCS1388054;7;5
007654;13.12.2019;13:55:00;Stop          ;19.10.2017;FEY;;LION;49;14500;7200;128;5;88;94;8400;3000;4126;4099;1;12767;23.14;33.94;36,1;BCS1388054;7;5
007654;13.12.2019;13:55:04;Charge to 10% ;19.10.2017;FEY;;LION;49;14500;7200;128;5;88;94;8400;3000;4128;4101;1;13033;23.14;33.84;36,1;BCS1388054;7;5
007654;13.12.2019;13:55:27;Stop          ;19.10.2017;FEY;;LION;49;14500;7200;128;5;88;94;8400;3000;4068;4067;1;13381;23.24;32.84;36,1;BCS1388054;7;5
007654;13.12.2019;13:55:29;Fastcharge    ;19.10.2017;FEY;;LION;49;14500;7200;192;5;88;94;8400;3000;4060;4066;1;13464;23.34;32.74;36,1;BCS1388054;7;5
007654;13.12.2019;13:55:29;Stop          ;19.10.2017;FEY;;LION;49;14500;7200;192;5;88;94;8400;3000;4060;4066;1;13464;23.34;32.74;36,1;BCS1388054;7;5
007654;13.12.2019;13:55:33;Normalcharge  ;19.10.2017;FEY;;LION;49;14500;7200;192;5;88;94;8400;3000;4060;4066;1;13339;23.34;32.74;36,1;BCS1388054;7;5
007654;13.12.2019;13:55:39;Fastcharge    ;19.10.2017;FEY;;LION;49;14500;7200;192;5;88;94;8400;3000;3984;4025;1;13021;23.34;32.84;36,1;BCS1388054;7;5
007654;13.12.2019;13:55:39;Stop          ;19.10.2017;FEY;;LION;49;14500;7200;192;5;88;94;8400;3000;3984;4025;1;13021;23.34;32.84;36,1;BCS1388054;7;5
007654;13.12.2019;13:56:34;Stop          ;19.10.2017;FEY;;LION;49;14500;7200;128;5;88;94;8400;3000;4124;4096;1;12745;23.54;33.24;36,2;BCS1388054;7;5
007654;13.12.2019;13:56:38;Charge to 95% ;19.10.2017;FEY;;LION;49;14500;7200;128;5;88;94;8400;3000;4124;4096;1;13034;23.54;33.24;36,2;BCS1388054;7;5
007654;13.12.2019;13:56:40;Stop          ;19.10.2017;FEY;;LION;49;14500;7200;128;5;88;94;8400;3000;4124;4096;1;13035;23.54;33.24;36,2;BCS1388054;7;5
007654;13.12.2019;13:56:48;Charge to 90% ;19.10.2017;FEY;;LION;49;14500;7200;128;5;88;94;8400;3000;4068;4070;1;13034;23.54;32.94;36,2;BCS1388054;7;5
007654;13.12.2019;15:42:54;Stop          ;19.10.2017;FEY;;LION;49;14500;7200;192;5;85;90;8400;3000;4024;4024;1;12975;29.34;30.74;34,5;BCS1388054;7;5
007654;13.12.2019;15:42:59;Fastcharge    ;19.10.2017;FEY;;LION;49;14500;7200;192;5;85;90;8400;3000;4024;4024;1;13036;29.34;30.64;34,4;BCS1388054;7;5
007654;13.12.2019;21:04:43;Stop          ;19.10.2017;FEY;;LION;49;14500;7200;224;5;95;100;8400;;4152;4153;1;13036;27.24;27.84;31,7;BCS1388054;7;5

File: 009543.txt
Serialnumber ; Date ; Time ; Action ; Date of Manufacture ; Manufacturer ; Battery Name ; Device-Chemistry ; Specification-Info ; Design-Capacity [mAh] ; Design-Voltage [mV] ; Battery Status ; Cycle Count ; SOC [%] ; Relativ SOC[%] ; Desired Voltage [mV]; Desired Current [mA]; Cell Voltage 1 [mV] ; Cell Voltage 2 [mV] ; Max_Error [%] ; Busvoltage[mV] ; Battery Temperature [°C] ; Charger Temperature [°C] ; Batterysystem ; Case ; PLace
009543;10.12.2019;15:28:53;Charge to 30% ;04.12.2018;FEY;;LION;49;14500;7200;224;52;93;100;8400;;4129;4130;1;13003;22.84;25.34;27,1;BCS1388054;4;2
009543;10.12.2019;20:47:57;Stop          ;04.12.2018;FEY;;LION;49;14500;7200;192;53;29;30;8400;3000;3559;3560;1;13003;34.14;34.64;33,4;BCS1388054;4;2
009543;11.12.2019;08:48:41;Fastcharge    ;04.12.2018;FEY;;LION;49;14500;7200;192;53;29;30;8400;3000;3567;3568;1;13004;26.74;29.44;31,9;BCS1388054;4;2
009543;11.12.2019;13:42:44;Stop          ;04.12.2018;FEY;;LION;49;14500;7200;224;53;94;100;8400;;4161;4162;1;13003;30.54;31.44;31,9;BCS1388054;4;2
009543;11.12.2019;15:46:31;Charge to 10% ;04.12.2018;FEY;;LION;49;14500;7200;224;53;96;100;8400;;4153;4154;1;13003;27.64;29.74;31,4;BCS1388054;4;2
009543;11.12.2019;22:50:44;Stop          ;04.12.2018;FEY;;LION;49;14500;7200;192;54;10;10;8400;3000;3356;3358;1;13002;34.84;34.74;33,2;BCS1388054;4;2
009543;12.12.2019;08:45:03;Normalcharge  ;04.12.2018;FEY;;LION;49;14500;7200;192;54;9;10;8400;3000;3365;3366;1;13001;26.84;29.54;31,9;BCS1388054;4;2
009543;12.12.2019;16:41:48;Stop          ;04.12.2018;FEY;;LION;49;14500;7200;224;54;96;100;8400;;4159;4160;1;13003;29.64;30.94;31,5;BCS1388054;4;2
009543;13.12.2019;10:48:01;Charge to 10% ;04.12.2018;FEY;;LION;49;14500;7200;224;54;95;100;8400;;4148;4149;1;13002;26.94;29.64;32,0;BCS1388054;4;2
009543;13.12.2019;15:42:25;Stop          ;04.12.2018;FEY;;LION;49;14500;7200;192;55;34;36;8400;3000;3499;3552;1;13492;33.54;39.84;34,6;BCS1388054;4;2
009543;13.12.2019;15:42:27;Cycle         ;04.12.2018;FEY;;LION;49;14500;7200;192;55;34;36;8400;3000;3499;3552;1;13003;33.54;39.74;34,6;BCS1388054;4;2
009543;14.12.2019;22:44:28;Stop          ;04.12.2018;FEY;;LION;49;14500;7200;224;56;93;99;8400;;4151;4151;1;13003;27.04;29.64;32,0;BCS1388054;4;2
009543;16.12.2019;07:43:14;Charge to 10% ;04.12.2018;FEY;;LION;49;14500;7200;224;56;93;100;8400;;4146;4145;1;13003;26.74;29.14;31,9;BCS1388054;4;2
009543;16.12.2019;14:36:44;Stop          ;04.12.2018;FEY;;LION;49;14500;7200;192;58;10;10;8400;3000;3364;3366;1;13004;33.24;33.34;32,4;BCS1388054;4;2
009543;16.12.2019;14:44:13;Charge to 90% ;04.12.2018;FEY;;LION;49;14500;7200;192;58;10;10;8400;3000;3366;3367;1;13004;32.74;32.24;31,7;BCS1388054;4;2
009543;16.12.2019;20:50:27;Stop          ;04.12.2018;FEY;;LION;49;14500;7200;192;58;84;90;8400;3000;4056;4057;1;13004;32.34;32.44;31,6;BCS1388054;4;2
009543;17.12.2019;08:37:49;Fastcharge    ;04.12.2018;FEY;;LION;49;14500;7200;192;58;84;90;8400;3000;4046;4048;1;13003;26.74;29.44;31,6;BCS1388054;4;2
009543;17.12.2019;10:31:06;Stop          ;04.12.2018;FEY;;LION;49;14500;7200;224;58;94;100;8400;;4163;4165;1;13003;28.54;31.04;31,4;BCS1388054;4;2
009543;17.12.2019;13:38:32;Charge to 10% ;04.12.2018;FEY;;LION;49;14500;7200;224;58;94;100;8400;;4150;4151;1;13003;27.04;29.34;30,8;BCS1388054;4;2
009543;17.12.2019;20:34:29;Stop          ;04.12.2018;FEY;;LION;49;14500;7200;192;59;10;10;8400;3000;3364;3365;1;13002;34.84;34.94;34,1;BCS1388054;4;2
009543;18.12.2019;08:31:26;Fastcharge    ;04.12.2018;FEY;;LION;49;14500;7200;192;59;10;10;8400;3000;3372;3374;1;13003;26.84;29.44;31,6;BCS1388054;4;2
009543;18.12.2019;14:29:12;Stop          ;04.12.2018;FEY;;LION;49;14500;7200;224;59;94;100;8400;;4162;4164;1;13004;30.64;31.54;31,9;BCS1388054;4;2
009543;19.12.2019;08:23:58;Charge to 60% ;04.12.2018;FEY;;LION;49;14500;7200;224;59;95;100;8400;;4149;4151;1;13003;26.74;29.44;31,6;BCS1388054;4;2
009543;19.12.2019;11:30:18;Stop          ;04.12.2018;FEY;;LION;49;14500;7200;192;59;57;60;8400;3000;3765;3769;1;13003;34.64;36.04;34,6;BCS1388054;4;2
009543;19.12.2019;12:16:45;Cycle         ;04.12.2018;FEY;;LION;49;14500;7200;192;59;57;60;8400;3000;3776;3780;1;13004;31.14;31.84;32,7;BCS1388054;4;2
009543;20.12.2019;17:30:48;Stop          ;04.12.2018;FEY;;LION;49;14500;7200;224;60;93;100;8400;;4152;4153;1;13004;27.24;29.24;30,6;BCS1388054;4;2
009543;06.01.2020;06:34:50;Charge to 60% ;04.12.2018;FEY;;LION;49;14500;7200;224;60;92;99;8400;;4122;4123;1;13004;26.94;29.54;31,9;BCS1388054;4;2
009543;06.01.2020;09:30:33;Stop          ;04.12.2018;FEY;;LION;49;14500;7200;192;61;57;60;8400;3000;3763;3767;1;13005;33.84;35.24;33,7;BCS1388054;4;2
009543;06.01.2020;09:50:38;Fastcharge    ;04.12.2018;FEY;;LION;49;14500;7200;192;61;57;60;8400;3000;3772;3777;1;13006;32.34;32.44;32,7;BCS1388054;4;2
009543;06.01.2020;13:09:19;Stop          ;04.12.2018;FEY;;LION;49;14500;7200;224;61;94;100;8400;;4161;4162;1;13003;30.14;31.04;31,4;BCS1388054;4;2

File: 009653.txt
Serialnumber ; Date ; Time ; Action ; Date of Manufacture ; Manufacturer ; Battery Name ; Device-Chemistry ; Specification-Info ; Design-Capacity [mAh] ; Design-Voltage [mV] ; Battery Status ; Cycle Count ; SOC [%] ; Relativ SOC[%] ; Desired Voltage [mV]; Desired Current [mA]; Cell Voltage 1 [mV] ; Cell Voltage 2 [mV] ; Max_Error [%] ; Busvoltage[mV] ; Battery Temperature [°C] ; Charger Temperature [°C] ; Batterysystem ; Case ; PLace
009653;07.12.2020;04:14:21;Cycle         ;04.12.2018;FEY;;LION;49;14500;7200;224;3;100;99;8400;;4156;4156;1;13000;25.24;27.94;30,3;BCS1388054;2;8
009653;08.12.2020;16:19:44;Stop          ;04.12.2018;FEY;;LION;49;14500;7200;224;4;98;100;8400;;4152;4150;1;12999;27.44;29.64;31,9;BCS1388054;2;8
009653;03.03.2021;08:17:35;Normalcharge  ;04.12.2018;FEY;;LION;49;14500;7200;192;5;73;75;8400;3000;3889;3888;1;13009;22.74;23.24;23,6;BCS1388054;5;14
009653;03.03.2021;11:26:36;Stop          ;04.12.2018;FEY;;LION;49;14500;7200;224;5;98;100;8400;;4159;4156;1;13002;28.64;30.04;31,5;BCS1388054;5;14
009653;06.04.2021;08:38:50;Normalcharge  ;04.12.2018;FEY;;LION;49;14500;7200;224;5;96;99;8400;;4132;4129;1;13008;20.24;24.94;28,1;BCS1388054;3;18
009653;06.04.2021;08:39:42;Stop           ;04.12.2018;FEY;;LION;49;14500;7200;224;5;96;99;8400;;4132;4129;1;13006;20.44;25.04;28,2;BCS1388054;3;18
009653;08.04.2021;07:58:01;Normalcharge  ;04.12.2018;FEY;;LION;49;14500;7200;224;5;96;99;8400;;4131;4128;1;13009;24.84;25.14;26,4;BCS1388054;3;18
009653;08.04.2021;07:59:40;Stop           ;04.12.2018;FEY;;LION;49;14500;7200;224;5;96;99;8400;;4131;4129;1;13007;24.84;25.64;26,8;BCS1388054;3;18
009653;08.04.2021;10:35:05;Normalcharge  ;04.12.2018;FEY;;LION;49;14500;7200;224;5;96;99;8400;;4131;4128;1;13008;25.14;25.34;28,1;BCS1388054;3;18
009653;08.04.2021;10:36:56;Stop           ;04.12.2018;FEY;;LION;49;14500;7200;224;5;96;99;8400;;4131;4129;1;13005;25.14;25.94;29,0;BCS1388054;3;18
009653;18.04.2021;08:33:50;Normalcharge  ;04.12.2018;FEY;;LION;49;14500;7200;224;5;96;99;8400;;4128;4125;1;13006;25.74;26.44;27,8;BCS1388054;3;18
009653;18.04.2021;08:33:58;Stop           ;04.12.2018;FEY;;LION;49;14500;7200;224;5;96;99;8400;;4127;4125;1;13005;25.74;26.54;27,9;BCS1388054;3;18
009653;04.08.2021;07:24:50;Normalcharge  ;04.12.2018;FEY;;LION;49;14500;7200;192;5;94;96;8400;;4094;4092;1;13001;29.94;30.74;31,6;BCS1388054;3;18
009653;04.08.2021;07:25:37;Stop           ;04.12.2018;FEY;;LION;49;14500;7200;192;5;94;96;8400;;4094;4092;1;12999;29.94;30.84;31,7;BCS1388054;3;18
009653;22.08.2021;11:08:05;Normalcharge  ;04.12.2018;FEY;;LION;49;14500;7200;192;5;67;69;8400;3000;3838;3836;1;13011;22.04;29.94;32,1;BCS1388054;4;16
009653;22.08.2021;11:08:38;Stop          ;04.12.2018;FEY;;LION;49;14500;7200;128;5;67;69;8400;3000;3896;3863;1;12667;22.14;31.04;32,5;BCS1388054;4;16
009653;14.10.2021;12:39:58;Normalcharge  ;04.12.2018;FEY;;LION;49;14500;7200;192;5;42;43;8400;3000;3606;3606;1;13001;24.54;26.04;27,9;BCS1388054;2;14
009653;14.10.2021;12:41:25;Stop          ;04.12.2018;FEY;;LION;49;14500;7200;128;5;42;43;8400;3000;3693;3646;1;12562;24.54;29.84;28,2;BCS1388054;2;14
009653;01.11.2021;09:52:15;Normalcharge  ;04.12.2018;FEY;;LION;49;14500;7200;192;5;41;42;8400;3000;3606;3605;1;13002;25.44;25.84;26,3;BCS1388054;2;14
009653;01.11.2021;09:53:18;Stop          ;04.12.2018;FEY;;LION;49;14500;7200;128;5;41;42;8400;3000;3690;3643;1;12512;25.44;28.74;26,8;BCS1388054;2;14
009653;01.11.2021;10:02:05;Normalcharge  ;04.12.2018;FEY;;LION;49;14500;7200;192;5;41;42;8400;3000;3607;3606;1;12995;25.54;27.74;29,5;BCS1388054;2;14
009653;01.11.2021;10:03:24;Stop          ;04.12.2018;FEY;;LION;49;14500;7200;128;5;41;42;8400;3000;3695;3646;1;12499;25.64;30.94;29,3;BCS1388054;2;14

File: 009702.txt
Serialnumber ; Date ; Time ; Action ; Date of Manufacture ; Manufacturer ; Battery Name ; Device-Chemistry ; Specification-Info ; Design-Capacity [mAh] ; Design-Voltage [mV] ; Battery Status ; Cycle Count ; SOC [%] ; Relativ SOC[%] ; Desired Voltage [mV]; Desired Current [mA]; Cell Voltage 1 [mV] ; Cell Voltage 2 [mV] ; Max_Error [%] ; Busvoltage[mV] ; Battery Temperature [°C] ; Charger Temperature [°C] ; Batterysystem ; Case ; PLace
009702;24.11.2020;08:56:08;Normalcharge  ;04.12.2018;FEY;;LION;49;14500;7200;192;3;65;70;8400;3000;3853;3855;1;13006;24.04;25.14;25,7;BCS1388054;1;17
009702;24.11.2020;08:59:34;Stop          ;04.12.2018;FEY;;LION;49;14500;7200;128;3;66;70;8400;3000;3867;3868;1;12919;24.44;28.44;26,4;BCS1388054;1;17
009702;24.11.2020;08:59:41;Normalcharge  ;04.12.2018;FEY;;LION;49;14500;7200;128;3;66;70;8400;3000;3864;3869;1;13002;24.44;28.24;26,4;BCS1388054;1;17
009702;24.11.2020;16:23:04;Stop          ;04.12.2018;FEY;;LION;49;14500;7200;224;3;94;100;8400;;4154;4157;1;13000;26.84;27.74;28,5;BCS1388054;1;17
009702;07.12.2020;04:14:17;Cycle         ;04.12.2018;FEY;;LION;49;14500;7200;224;3;93;100;8400;;4142;4144;1;12994;25.94;28.54;30,3;BCS1388054;1;8
009702;08.12.2020;16:19:38;Stop          ;04.12.2018;FEY;;LION;49;14500;7200;224;4;95;100;8400;;4152;4154;1;12993;27.84;29.94;31,9;BCS1388054;1;8
009702;03.03.2021;08:17:35;Normalcharge  ;04.12.2018;FEY;;LION;49;14500;7200;192;4;69;73;8400;3000;3875;3876;1;13021;23.44;23.64;23,6;BCS1388054;5;18
009702;03.03.2021;11:26:36;Stop          ;04.12.2018;FEY;;LION;49;14500;7200;224;4;95;100;8400;;4160;4161;1;13015;28.54;30.04;31,5;BCS1388054;5;18
009702;06.04.2021;08:38:46;Normalcharge  ;04.12.2018;FEY;;LION;49;14500;7200;224;4;94;99;8400;;4131;4132;1;13005;20.94;26.14;28,1;BCS1388054;2;12
009702;06.04.2021;08:39:36;Stop          ;04.12.2018;FEY;;LION;49;14500;7200;224;4;94;99;8400;;4131;4132;1;13003;21.14;26.24;28,2;BCS1388054;2;12
009702;08.04.2021;07:57:57;Normalcharge  ;04.12.2018;FEY;;LION;49;14500;7200;224;4;94;99;8400;;4130;4131;1;13005;25.54;26.34;26,3;BCS1388054;2;12
009702;08.04.2021;07:59:45;Stop          ;04.12.2018;FEY;;LION;49;14500;7200;224;4;94;99;8400;;4131;4131;1;13002;25.54;26.64;26,8;BCS1388054;2;12
009702;08.04.2021;10:35:00;Normalcharge  ;04.12.2018;FEY;;LION;49;14500;7200;224;4;94;99;8400;;4131;4131;1;13004;25.94;26.74;28,1;BCS1388054;2;12
009702;08.04.2021;10:36:53;Stop          ;04.12.2018;FEY;;LION;49;14500;7200;224;4;94;99;8400;;4131;4131;1;13002;25.94;27.24;28,9;BCS1388054;2;12
009702;18.04.2021;08:33:36;Normalcharge  ;04.12.2018;FEY;;LION;49;14500;7200;224;4;93;99;8400;;4127;4127;1;13003;26.44;27.54;27,7;BCS1388054;2;12
009702;18.04.2021;08:33:44;Stop          ;04.12.2018;FEY;;LION;49;14500;7200;224;4;93;99;8400;;4127;4127;1;13002;26.44;27.54;27,8;BCS1388054;2;12
009702;04.08.2021;07:24:55;Normalcharge  ;04.12.2018;FEY;;LION;49;14500;7200;192;4;91;96;8400;;4093;4093;1;12996;30.74;31.94;31,5;BCS1388054;2;12
009702;04.08.2021;07:25:47;Stop          ;04.12.2018;FEY;;LION;49;14500;7200;192;4;91;96;8400;;4093;4093;1;12995;30.74;32.04;31,9;BCS1388054;2;12
009702;22.08.2021;11:08:09;Normalcharge  ;04.12.2018;FEY;;LION;49;14500;7200;192;5;68;72;8400;3000;3868;3868;1;13000;23.54;28.84;32,1;BCS1388054;5;14
009702;22.08.2021;11:08:42;Stop          ;04.12.2018;FEY;;LION;49;14500;7200;128;5;68;72;8400;3000;3896;3881;1;12840;23.64;30.14;32,5;BCS1388054;5;14
009702;14.10.2021;12:39:57;Normalcharge  ;04.12.2018;FEY;;LION;49;14500;7200;192;5;44;47;8400;3000;3632;3632;1;13011;24.94;26.44;27,9;BCS1388054;2;9
009702;14.10.2021;12:41:25;Stop          ;04.12.2018;FEY;;LION;49;14500;7200;128;5;44;47;8400;3000;3720;3671;1;12584;25.04;29.64;28,2;BCS1388054;2;9
009702;01.11.2021;09:52:14;Normalcharge  ;04.12.2018;FEY;;LION;49;14500;7200;192;5;44;47;8400;3000;3631;3631;1;13012;26.04;26.14;26,3;BCS1388054;2;9
009702;01.11.2021;09:53:18;Stop          ;04.12.2018;FEY;;LION;49;14500;7200;128;5;44;47;8400;3000;3716;3669;1;12523;26.14;28.64;26,8;BCS1388054;2;9
009702;01.11.2021;10:02:05;Normalcharge  ;04.12.2018;FEY;;LION;49;14500;7200;192;5;44;47;8400;3000;3632;3632;1;13005;26.24;27.74;29,5;BCS1388054;2;9
009702;01.11.2021;10:03:24;Stop          ;04.12.2018;FEY;;LION;49;14500;7200;128;5;45;47;8400;3000;3721;3672;1;12509;26.24;30.24;29,3;BCS1388054;2;9

File: 009716.txt
Serialnumber ; Date ; Time ; Action ; Date of Manufacture ; Manufacturer ; Battery Name ; Device-Chemistry ; Specification-Info ; Design-Capacity [mAh] ; Design-Voltage [mV] ; Battery Status ; Cycle Count ; SOC [%] ; Relativ SOC[%] ; Desired Voltage [mV]; Desired Current [mA]; Cell Voltage 1 [mV] ; Cell Voltage 2 [mV] ; Max_Error [%] ; Busvoltage[mV] ; Battery Temperature [°C] ; Charger Temperature [°C] ; Batterysystem ; Case ; PLace
009716;02.12.2020;11:43:08;Cycle         ;04.12.2018;FEY;;LION;49;14500;7200;192;1;79;80;8400;3000;3934;3934;1;12993;25.84;27.04;28,4;BCS1388054;1;4
009716;03.12.2020;15:31:47;Stop          ;04.12.2018;FEY;;LION;49;14500;7200;224;2;97;100;8400;;4156;4155;1;12993;26.64;27.44;28,8;BCS1388054;1;4
009716;03.12.2020;17:28:02;Normalcharge  ;04.12.2018;FEY;;LION;49;14500;7200;224;2;97;100;8400;;4154;4154;1;12993;26.54;27.44;28,9;BCS1388054;1;4
009716;03.03.2021;08:17:17;Normalcharge  ;04.12.2018;FEY;;LION;49;14500;7200;192;2;92;95;8400;3000;4090;4090;1;13012;23.14;23.64;23,5;BCS1388054;2;8
009716;04.03.2021;07:53:46;Stop          ;04.12.2018;FEY;;LION;49;14500;7200;224;2;97;100;8400;;4148;4147;1;13003;26.44;28.24;31,6;BCS1388054;2;8
009716;04.04.2021;11:50:10;Normalcharge  ;04.12.2018;FEY;;LION;49;14500;7200;192;2;52;54;8400;3000;3690;3690;1;13005;24.74;26.64;27,8;BCS1388054;5;3
009716;04.04.2021;11:51:30;Stop          ;04.12.2018;FEY;;LION;49;14500;7200;128;2;52;54;8400;3000;3777;3730;1;12680;24.84;29.74;28,5;BCS1388054;5;3
009716;05.04.2021;09:38:11;Charge to 60% ;04.12.2018;FEY;;LION;49;14500;7200;192;2;52;55;8400;3000;3692;3692;1;12996;24.94;26.54;26,3;BCS1388054;4;3
009716;05.04.2021;10:13:52;Stop          ;04.12.2018;FEY;;LION;49;14500;7200;192;2;57;60;8400;3000;3758;3758;1;12993;27.14;30.04;32,1;BCS1388054;4;3
009716;22.08.2021;11:07:55;Normalcharge  ;04.12.2018;FEY;;LION;49;14500;7200;192;2;44;46;8400;3000;3619;3619;1;12993;22.44;30.74;32,0;BCS1388054;2;4
009716;22.08.2021;11:08:28;Stop          ;04.12.2018;FEY;;LION;49;14500;7200;128;2;44;46;8400;3000;3666;3640;1;12620;22.44;31.84;32,4;BCS1388054;2;4
009716;25.08.2021;08:14:57;Charge to 60% ;04.12.2018;FEY;;LION;49;14500;7200;192;2;44;45;8400;3000;3622;3622;1;12998;30.34;34.04;33,2;BCS1388054;6;2
009716;25.08.2021;09:50:39;Stop          ;04.12.2018;FEY;;LION;49;14500;7200;192;2;57;60;8400;3000;3733;3733;1;12997;33.84;36.94;36,4;BCS1388054;6;2
009716;01.11.2021;09:52:06;Normalcharge  ;04.12.2018;FEY;;LION;49;14500;7200;192;2;43;44;8400;3000;3621;3621;1;13009;24.24;25.64;26,3;BCS1388054;4;12
009716;01.11.2021;09:53:35;Stop          ;04.12.2018;FEY;;LION;49;14500;7200;128;2;43;45;8400;3000;3710;3661;1;12605;24.34;27.94;27,1;BCS1388054;4;12
009716;01.11.2021;10:02:14;Normalcharge  ;04.12.2018;FEY;;LION;49;14500;7200;192;2;43;45;8400;3000;3623;3623;1;13007;24.94;26.94;29,5;BCS1388054;4;12
009716;01.11.2021;10:03:16;Stop          ;04.12.2018;FEY;;LION;49;14500;7200;128;2;43;45;8400;3000;3709;3661;1;12585;25.04;28.54;29,3;BCS1388054;4;12

File: 009735.txt
Serialnumber ; Date ; Time ; Action ; Date of Manufacture ; Manufacturer ; Battery Name ; Device-Chemistry ; Specification-Info ; Design-Capacity [mAh] ; Design-Voltage [mV] ; Battery Status ; Cycle Count ; SOC [%] ; Relativ SOC[%] ; Desired Voltage [mV]; Desired Current [mA]; Cell Voltage 1 [mV] ; Cell Voltage 2 [mV] ; Max_Error [%] ; Busvoltage[mV] ; Battery Temperature [°C] ; Charger Temperature [°C] ; Batterysystem ; Case ; PLace
009735;29.11.2020;04:25:09;Cycle         ;04.12.2018;FEY;;LION;49;14500;7200;192;2;76;80;8400;3000;3917;3917;1;12997;25.04;25.34;25,6;BCS1388054;1;5
009735;12.01.2021;04:16:00;Charge to 90% ;04.12.2018;FEY;;LION;49;14500;7200;192;3;95;98;8400;;4127;4130;1;13001;22.94;20.74;23,0;BCS1388054;1;4
009735;12.01.2021;04:16:03;Stop          ;04.12.2018;FEY;;LION;49;14500;7200;192;3;95;98;8400;;4127;4130;1;13001;22.94;22.54;23,0;BCS1388054;1;4
009735;12.01.2021;04:17:15;Charge to 90% ;04.12.2018;FEY;;LION;49;14500;7200;192;3;95;98;8400;;4127;4130;1;13000;22.94;23.24;23,5;BCS1388054;1;4
009735;12.01.2021;04:55:18;Stop          ;04.12.2018;FEY;;LION;49;14500;7200;192;3;84;90;8400;3000;4032;4033;1;12996;26.54;31.84;31,7;BCS1388054;1;4
009735;12.01.2021;05:21:33;Cycle         ;04.12.2018;FEY;;LION;49;14500;7200;192;3;84;90;8400;3000;4050;4052;1;12995;26.74;27.24;30,6;BCS1388054;1;4
009735;13.01.2021;08:18:34;Stop          ;04.12.2018;FEY;;LION;49;14500;7200;224;4;95;100;8400;;4156;4156;1;12996;26.44;27.14;30,7;BCS1388054;1;4
009735;21.02.2021;13:43:32;Normalcharge  ;04.12.2018;FEY;;LION;49;14500;7200;192;5;39;40;8400;3000;3601;3601;1;13006;23.04;25.34;27,5;BCS1388054;2;5
009735;21.02.2021;19:27:00;Stop          ;04.12.2018;FEY;;LION;49;14500;7200;224;5;97;100;8400;;4162;4162;1;13006;26.84;28.14;31,1;BCS1388054;2;5
009735;04.04.2021;11:50:02;Normalcharge  ;04.12.2018;FEY;;LION;49;14500;7200;192;6;53;55;8400;3000;3692;3691;1;13010;24.84;26.04;27,7;BCS1388054;6;11
009735;04.04.2021;11:51:24;Stop          ;04.12.2018;FEY;;LION;49;14500;7200;128;6;53;55;8400;3000;3779;3732;1;12671;24.94;28.84;28,5;BCS1388054;6;11
009735;05.04.2021;09:38:00;Ladung auf 60% ;04.12.2018;FEY;;LION;49;14500;7200;192;6;53;55;8400;3000;3694;3693;1;13016;24.84;26.14;26,3;BCS1388054;3;3
009735;05.04.2021;10:06:07;Stop           ;04.12.2018;FEY;;LION;49;14500;7200;192;6;58;60;8400;3000;3756;3754;1;13012;26.84;29.24;31,4;BCS1388054;3;3
009735;22.08.2021;11:08:19;Normalcharge  ;04.12.2018;FEY;;LION;49;14500;7200;192;6;54;55;8400;3000;3699;3698;1;13032;29.74;29.74;32,2;BCS1388054;7;14
009735;22.08.2021;11:08:51;Stop          ;04.12.2018;FEY;;LION;49;14500;7200;128;6;54;55;8400;3000;3729;3711;1;12869;29.74;30.94;32,6;BCS1388054;7;14
009735;25.08.2021;08:15:08;Charge to 60% ;04.12.2018;FEY;;LION;49;14500;7200;192;6;54;56;8400;3000;3699;3698;1;12997;30.24;32.64;33,4;BCS1388054;4;7
009735;25.08.2021;12:59:17;Stop          ;04.12.2018;FEY;;LION;49;14500;7200;192;6;58;60;8400;3000;3746;3745;1;12996;32.74;35.34;36,6;BCS1388054;4;7
009735;01.11.2021;09:52:15;Normalcharge  ;04.12.2018;FEY;;LION;49;14500;7200;192;6;56;57;8400;3000;3715;3715;1;13001;25.64;27.04;26,3;BCS1388054;2;12
009735;01.11.2021;09:53:18;Stop          ;04.12.2018;FEY;;LION;49;14500;7200;128;6;56;57;8400;3000;3804;3755;1;12506;25.64;28.74;26,8;BCS1388054;2;12
009735;01.11.2021;10:02:05;Normalcharge  ;04.12.2018;FEY;;LION;49;14500;7200;192;6;56;57;8400;3000;3718;3718;1;12994;25.94;27.74;29,5;BCS1388054;2;12
009735;01.11.2021;10:03:24;Stop          ;04.12.2018;FEY;;LION;49;14500;7200;128;6;56;57;8400;3000;3810;3761;1;12491;25.94;29.54;29,3;BCS1388054;2;12

File: 009747.txt
Serialnumber ; Date ; Time ; Action ; Date of Manufacture ; Manufacturer ; Battery Name ; Device-Chemistry ; Specification-Info ; Design-Capacity [mAh] ; Design-Voltage [mV] ; Battery Status ; Cycle Count ; SOC [%] ; Relativ SOC[%] ; Desired Voltage [mV]; Desired Current [mA]; Cell Voltage 1 [mV] ; Cell Voltage 2 [mV] ; Max_Error [%] ; Busvoltage[mV] ; Battery Temperature [°C] ; Charger Temperature [°C] ; Batterysystem ; Case ; PLace
009747;07.12.2020;04:14:36;Cycle         ;04.12.2018;FEY;;LION;49;14500;7200;192;3;96;98;8400;;4148;4148;1;12991;25.84;27.74;30,3;BCS1388054;6;10
009747;08.12.2020;16:20:13;Stop          ;04.12.2018;FEY;;LION;49;14500;7200;192;3;96;98;8400;;4146;4145;1;12991;27.94;29.24;31,9;BCS1388054;6;10
009747;12.01.2021;04:17:40;Charge to 90% ;04.12.2018;FEY;;LION;49;14500;7200;192;3;95;97;8400;;4132;4131;1;13007;23.24;22.84;23,6;BCS1388054;6;12
009747;12.01.2021;05:00:55;Stop          ;04.12.2018;FEY;;LION;49;14500;7200;192;3;88;90;8400;3000;4064;4064;1;13001;27.84;27.04;31,2;BCS1388054;6;12
009747;12.01.2021;05:21:57;Cycle         ;04.12.2018;FEY;;LION;49;14500;7200;192;3;88;90;8400;3000;4067;4067;1;13002;27.34;26.14;30,4;BCS1388054;6;12
009747;13.01.2021;08:31:18;Stop          ;04.12.2018;FEY;;LION;49;14500;7200;224;4;97;100;8400;;4155;4153;1;13000;26.84;26.24;31,1;BCS1388054;6;12
009747;03.03.2021;08:17:17;Normalcharge  ;04.12.2018;FEY;;LION;49;14500;7200;192;4;91;95;8400;3000;4090;4090;1;13010;23.34;23.04;23,5;BCS1388054;2;14
009747;04.03.2021;07:53:46;Stop          ;04.12.2018;FEY;;LION;49;14500;7200;224;4;97;100;8400;;4146;4145;1;13001;26.54;27.84;31,6;BCS1388054;2;14
009747;04.04.2021;11:50:39;Normalcharge  ;04.12.2018;FEY;;LION;49;14500;7200;192;4;51;53;8400;3000;3678;3678;1;12995;25.14;26.34;28,1;BCS1388054;1;4
009747;04.04.2021;11:51:54;Stop          ;04.12.2018;FEY;;LION;49;14500;7200;128;4;51;53;8400;3000;3764;3720;1;12566;25.14;28.94;28,8;BCS1388054;1;4
009747;05.04.2021;09:38:11;Charge to 60% ;04.12.2018;FEY;;LION;49;14500;7200;192;4;51;53;8400;3000;3679;3680;1;13003;25.24;25.74;26,3;BCS1388054;4;15
009747;05.04.2021;10:13:52;Stop          ;04.12.2018;FEY;;LION;49;14500;7200;192;4;57;60;8400;3000;3749;3749;1;13001;27.84;30.14;32,1;BCS1388054;4;15
009747;22.08.2021;11:07:55;Normalcharge  ;04.12.2018;FEY;;LION;49;14500;7200;192;4;43;45;8400;3000;3618;3619;1;12995;22.44;31.04;32,0;BCS1388054;2;5
009747;22.08.2021;11:08:28;Stop          ;04.12.2018;FEY;;LION;49;14500;7200;128;4;43;45;8400;3000;3668;3641;1;12612;22.54;32.14;32,4;BCS1388054;2;5
009747;25.08.2021;08:14:57;Charge to 60% ;04.12.2018;FEY;;LION;49;14500;7200;192;4;43;45;8400;3000;3620;3621;1;12992;30.44;32.04;33,2;BCS1388054;6;1
009747;25.08.2021;09:50:38;Stop          ;04.12.2018;FEY;;LION;49;14500;7200;192;4;57;60;8400;3000;3735;3735;1;12973;33.74;34.74;36,4;BCS1388054;6;1
009747;01.11.2021;09:52:10;Normalcharge  ;04.12.2018;FEY;;LION;49;14500;7200;192;4;46;48;8400;3000;3637;3638;1;13007;24.74;25.14;26,4;BCS1388054;3;1
009747;01.11.2021;09:53:26;Stop           ;04.12.2018;FEY;;LION;49;14500;7200;128;4;46;48;8400;3000;3723;3677;1;12629;24.84;28.64;27,1;BCS1388054;3;1
009747;01.11.2021;10:02:09;Normalcharge  ;04.12.2018;FEY;;LION;49;14500;7200;192;4;46;48;8400;3000;3639;3640;1;13003;25.14;28.04;29,5;BCS1388054;3;1
009747;01.11.2021;10:03:20;Stop           ;04.12.2018;FEY;;LION;49;14500;7200;128;4;46;48;8400;3000;3725;3679;1;12632;25.14;30.44;29,5;BCS1388054;3;1