Folder: Battery_sort_V2/reader/backup_20220214/Batterieverzeichnis_new (part 2)

File: 009627.txt
Serialnumber ; Date ; Time ; Action ; Date of Manufacture ; Manufacturer ; Battery Name ; Device-Chemistry ; Specification-Info ; Design-Capacity [mAh] ; Design-Voltage [mV] ; Battery Status ; Cycle Count ; SOC [%] ; Relativ SOC[%] ; Desired Voltage [mV]; Desired Current [mA]; Cell Voltage 1 [mV] ; Cell Voltage 2 [mV] ; Max_Error [%] ; Busvoltage[mV] ; Battery Temperature [°C] ; Charger Temperature [°C] ; Batterysystem ; Case ; PLace
009627;10.12.2019;15:28:47;Ladung auf 30% ;03.12.2018;FEY;;LION;49;14500;7200;224;48;93;100;8400;;4131;4130;1;13008;22.44;24.74;27,1;BCS1388054;3;1
009627;10.12.2019;20:47:21;Stop           ;03.12.2018;FEY;;LION;49;14500;7200;192;49;29;30;8400;3000;3558;3558;1;13005;33.44;34.94;33,5;BCS1388054;3;1
009627;11.12.2019;08:48:36;Fastcharge    ;03.12.2018;FEY;;LION;49;14500;7200;192;49;29;30;8400;3000;3569;3569;1;13006;26.14;28.54;31,9;BCS1388054;3;1
009627;11.12.2019;13:39:41;Stop           ;03.12.2018;FEY;;LION;49;14500;7200;224;49;95;100;8400;;4163;4163;1;13006;29.84;31.44;32,5;BCS1388054;3;1
009627;11.12.2019;15:46:24;Ladung auf 10% ;03.12.2018;FEY;;LION;49;14500;7200;224;49;96;99;8400;;4153;4153;1;13006;26.94;29.24;31,4;BCS1388054;3;1
009627;11.12.2019;22:48:44;Stop           ;03.12.2018;FEY;;LION;49;14500;7200;192;50;10;10;8400;3000;3350;3351;1;13004;34.24;35.44;33,6;BCS1388054;3;1
009627;12.12.2019;08:44:58;Normalcharge  ;03.12.2018;FEY;;LION;49;14500;7200;192;50;9;9;8400;3000;3363;3364;1;13005;26.24;28.84;31,9;BCS1388054;3;1
009627;12.12.2019;16:39:24;Stop           ;03.12.2018;FEY;;LION;49;14500;7200;224;50;96;100;8400;;4162;4162;1;13005;29.04;30.84;31,7;BCS1388054;3;1
009627;13.12.2019;10:47:57;Ladung auf 10% ;03.12.2018;FEY;;LION;49;14500;7200;224;50;96;100;8400;;4148;4148;1;13006;26.34;28.84;32,0;BCS1388054;3;1
009627;13.12.2019;15:42:18;Stop           ;03.12.2018;FEY;;LION;49;14500;7200;192;51;35;36;8400;3000;3503;3554;1;13532;32.74;39.04;34,6;BCS1388054;3;1
009627;13.12.2019;15:42:20;Cycle          ;03.12.2018;FEY;;LION;49;14500;7200;192;51;35;36;8400;3000;3503;3554;1;13532;32.74;39.04;34,6;BCS1388054;3;1
009627;14.12.2019;22:36:33;Stop           ;03.12.2018;FEY;;LION;49;14500;7200;224;52;93;99;8400;;4151;4151;1;13006;26.44;28.64;31,6;BCS1388054;3;1
009627;16.12.2019;07:43:10;Ladung auf 10% ;03.12.2018;FEY;;LION;49;14500;7200;224;52;94;100;8400;;4145;4145;1;13006;26.04;28.34;31,9;BCS1388054;3;1
009627;16.12.2019;14:34:27;Stop           ;03.12.2018;FEY;;LION;49;14500;7200;192;53;10;10;8400;3000;3363;3365;1;13004;32.74;34.24;32,5;BCS1388054;3;1
009627;16.12.2019;14:44:07;Ladung auf 90% ;03.12.2018;FEY;;LION;49;14500;7200;192;53;10;10;8400;3000;3368;3368;1;13005;32.04;32.14;31,7;BCS1388054;3;1
009627;16.12.2019;20:48:39;Stop           ;03.12.2018;FEY;;LION;49;14500;7200;192;53;85;90;8400;3000;4064;4064;1;13007;31.64;33.24;31,9;BCS1388054;3;1
009627;17.12.2019;08:37:44;Fastcharge    ;03.12.2018;FEY;;LION;49;14500;7200;192;53;85;90;8400;3000;4049;4050;1;13005;26.14;28.54;31,5;BCS1388054;3;1
009627;17.12.2019;10:30:44;Stop           ;03.12.2018;FEY;;LION;49;14500;7200;224;53;95;100;8400;;4160;4160;1;13006;27.74;30.04;31,4;BCS1388054;3;1
009627;17.12.2019;13:38:28;Ladung auf 10% ;03.12.2018;FEY;;LION;49;14500;7200;224;53;95;100;8400;;4149;4149;1;13008;26.44;28.74;30,8;BCS1388054;3;1
009627;17.12.2019;20:32:04;Stop           ;03.12.2018;FEY;;LION;49;14500;7200;192;55;10;10;8400;3000;3365;3366;1;13005;34.14;35.34;34,6;BCS1388054;3;1
009627;18.12.2019;08:31:22;Fastcharge    ;03.12.2018;FEY;;LION;49;14500;7200;192;55;11;12;8400;3000;3376;3377;1;13006;26.24;28.74;31,6;BCS1388054;3;1
009627;18.12.2019;14:26:33;Stop           ;03.12.2018;FEY;;LION;49;14500;7200;224;55;95;100;8400;;4162;4163;1;13005;29.94;31.34;32,5;BCS1388054;3;1
009627;19.12.2019;08:23:54;Ladung auf 60% ;03.12.2018;FEY;;LION;49;14500;7200;224;55;96;100;8400;;4149;4150;1;13006;26.14;28.54;31,6;BCS1388054;3;1
009627;19.12.2019;11:28:29;Stop           ;03.12.2018;FEY;;LION;49;14500;7200;192;55;58;60;8400;3000;3760;3763;1;13004;33.94;38.14;35,1;BCS1388054;3;1
009627;19.12.2019;12:16:41;Cycle          ;03.12.2018;FEY;;LION;49;14500;7200;192;55;58;60;8400;3000;3780;3783;1;13005;30.34;31.04;32,7;BCS1388054;3;1
009627;20.12.2019;17:23:28;Stop           ;03.12.2018;FEY;;LION;49;14500;7200;224;56;94;100;8400;;4151;4151;1;13005;26.54;28.94;31,9;BCS1388054;3;1
009627;06.01.2020;06:34:46;Ladung auf 60% ;03.12.2018;FEY;;LION;49;14500;7200;192;56;93;98;8400;;4122;4122;1;13006;26.24;28.64;31,9;BCS1388054;3;1
009627;06.01.2020;09:29:20;Stop           ;03.12.2018;FEY;;LION;49;14500;7200;192;57;57;60;8400;3000;3773;3774;1;13007;33.04;35.54;34,2;BCS1388054;3;1
009627;06.01.2020;09:50:34;Fastcharge    ;03.12.2018;FEY;;LION;49;14500;7200;192;57;57;60;8400;3000;3784;3786;1;13006;31.54;31.84;32,7;BCS1388054;3;1
009627;06.01.2020;13:06:26;Stop           ;03.12.2018;FEY;;LION;49;14500;7200;224;57;95;100;8400;;4160;4161;1;13007;29.44;31.04;32,1;BCS1388054;3;1

File: 009637.txt
Serialnumber ; Date ; Time ; Action ; Date of Manufacture ; Manufacturer ; Battery Name ; Device-Chemistry ; Specification-Info ; Design-Capacity [mAh] ; Design-Voltage [mV] ; Battery Status ; Cycle Count ; SOC [%] ; Relativ SOC[%] ; Desired Voltage [mV]; Desired Current [mA]; Cell Voltage 1 [mV] ; Cell Voltage 2 [mV] ; Max_Error [%] ; Busvoltage[mV] ; Battery Temperature [°C] ; Charger Temperature [°C] ; Batterysystem ; Case ; PLace
009637;10.12.2019;15:28:47;Ladung auf 30% ;04.12.2018;FEY;;LION;49;14500;7200;224;47;93;100;8400;;4132;4132;1;12998;22.84;24.94;27,1;BCS1388054;3;8
009637;10.12.2019;20:47:21;Stop           ;04.12.2018;FEY;;LION;49;14500;7200;192;48;29;30;8400;3000;3558;3559;1;12997;34.54;35.04;33,5;BCS1388054;3;8
009637;11.12.2019;08:48:36;Fastcharge    ;04.12.2018;FEY;;LION;49;14500;7200;192;48;29;30;8400;3000;3567;3568;1;12996;26.64;28.64;31,9;BCS1388054;3;8
009637;11.12.2019;13:39:41;Stop           ;04.12.2018;FEY;;LION;49;14500;7200;224;48;94;100;8400;;4161;4161;1;12996;31.34;31.54;32,5;BCS1388054;3;8
009637;11.12.2019;15:46:24;Ladung auf 10% ;04.12.2018;FEY;;LION;49;14500;7200;224;48;96;100;8400;;4154;4153;1;12997;27.74;29.04;31,4;BCS1388054;3;8
009637;11.12.2019;22:48:44;Stop           ;04.12.2018;FEY;;LION;49;14500;7200;192;49;10;10;8400;3000;3354;3356;1;12996;35.44;35.24;33,6;BCS1388054;3;8
009637;12.12.2019;08:44:58;Normalcharge  ;04.12.2018;FEY;;LION;49;14500;7200;192;49;9;9;8400;3000;3364;3365;1;12996;26.84;28.74;31,9;BCS1388054;3;8
009637;12.12.2019;16:39:24;Stop           ;04.12.2018;FEY;;LION;49;14500;7200;224;49;95;100;8400;;4161;4163;1;12996;30.24;30.94;31,7;BCS1388054;3;8
009637;13.12.2019;10:47:57;Ladung auf 10% ;04.12.2018;FEY;;LION;49;14500;7200;224;49;95;100;8400;;4149;4150;1;12997;26.84;28.84;32,0;BCS1388054;3;8
009637;13.12.2019;15:42:18;Stop           ;04.12.2018;FEY;;LION;49;14500;7200;192;50;35;36;8400;3000;3499;3553;1;13536;33.94;39.54;34,6;BCS1388054;3;8
009637;13.12.2019;15:42:20;Cycle          ;04.12.2018;FEY;;LION;49;14500;7200;192;50;35;36;8400;3000;3499;3553;1;13536;33.94;39.54;34,6;BCS1388054;3;8
009637;14.12.2019;22:36:33;Stop           ;04.12.2018;FEY;;LION;49;14500;7200;224;51;92;99;8400;;4152;4152;1;12997;27.14;28.74;31,6;BCS1388054;3;8
009637;16.12.2019;07:43:10;Ladung auf 10% ;04.12.2018;FEY;;LION;49;14500;7200;224;51;93;100;8400;;4146;4146;1;12999;26.64;28.24;31,9;BCS1388054;3;8
009637;16.12.2019;14:34:27;Stop           ;04.12.2018;FEY;;LION;49;14500;7200;192;52;10;10;8400;3000;3364;3366;1;12998;33.84;34.14;32,5;BCS1388054;3;8
009637;16.12.2019;14:44:07;Ladung auf 90% ;04.12.2018;FEY;;LION;49;14500;7200;192;52;10;10;8400;3000;3366;3369;1;12998;33.14;32.34;31,7;BCS1388054;3;8
009637;16.12.2019;20:48:39;Stop           ;04.12.2018;FEY;;LION;49;14500;7200;192;52;84;90;8400;3000;4054;4057;1;12998;32.94;33.14;31,9;BCS1388054;3;8
009637;17.12.2019;08:37:44;Fastcharge    ;04.12.2018;FEY;;LION;49;14500;7200;192;52;84;90;8400;3000;4045;4047;1;12998;26.74;28.54;31,5;BCS1388054;3;8
009637;17.12.2019;10:30:44;Stop           ;04.12.2018;FEY;;LION;49;14500;7200;224;52;94;100;8400;;4160;4160;1;12998;28.64;30.24;31,4;BCS1388054;3;8
009637;17.12.2019;13:38:28;Ladung auf 10% ;04.12.2018;FEY;;LION;49;14500;7200;224;52;94;100;8400;;4150;4150;1;12997;27.04;28.64;30,8;BCS1388054;3;8
009637;17.12.2019;20:32:04;Stop           ;04.12.2018;FEY;;LION;49;14500;7200;192;53;10;10;8400;3000;3362;3364;1;12996;35.44;35.74;34,6;BCS1388054;3;8
009637;18.12.2019;08:31:22;Fastcharge    ;04.12.2018;FEY;;LION;49;14500;7200;192;53;10;10;8400;3000;3372;3374;1;12998;26.84;28.64;31,6;BCS1388054;3;8
009637;18.12.2019;14:26:33;Stop           ;04.12.2018;FEY;;LION;49;14500;7200;224;53;94;100;8400;;4161;4161;1;12997;31.44;31.64;32,5;BCS1388054;3;8
009637;19.12.2019;08:23:54;Ladung auf 60% ;04.12.2018;FEY;;LION;49;14500;7200;224;53;95;100;8400;;4149;4149;1;12997;26.74;28.44;31,6;BCS1388054;3;8
009637;19.12.2019;11:28:29;Stop           ;04.12.2018;FEY;;LION;49;14500;7200;192;54;57;60;8400;3000;3762;3765;1;12996;35.04;37.14;35,1;BCS1388054;3;8
009637;19.12.2019;12:16:41;Cycle          ;04.12.2018;FEY;;LION;49;14500;7200;192;54;57;60;8400;3000;3775;3778;1;12997;31.74;31.34;32,7;BCS1388054;3;8
009637;20.12.2019;17:23:28;Stop           ;04.12.2018;FEY;;LION;49;14500;7200;224;55;93;100;8400;;4152;4153;1;12997;27.34;28.84;31,9;BCS1388054;3;8
009637;06.01.2020;06:34:46;Ladung auf 60% ;04.12.2018;FEY;;LION;49;14500;7200;224;55;92;99;8400;;4123;4123;1;12999;26.84;28.54;31,9;BCS1388054;3;8
009637;06.01.2020;09:29:20;Stop           ;04.12.2018;FEY;;LION;49;14500;7200;192;55;56;60;8400;3000;3764;3767;1;12998;34.14;35.74;34,2;BCS1388054;3;8
009637;06.01.2020;09:50:34;Fastcharge    ;04.12.2018;FEY;;LION;49;14500;7200;192;55;56;60;8400;3000;3773;3777;1;12996;32.74;32.04;32,7;BCS1388054;3;8
009637;06.01.2020;13:06:26;Stop           ;04.12.2018;FEY;;LION;49;14500;7200;224;55;94;100;8400;;4160;4160;1;12998;30.94;31.14;32,1;BCS1388054;3;8

File: 009708.txt
Serialnumber ; Date ; Time ; Action ; Date of Manufacture ; Manufacturer ; Battery Name ; Device-Chemistry ; Specification-Info ; Design-Capacity [mAh] ; Design-Voltage [mV] ; Battery Status ; Cycle Count ; SOC [%] ; Relativ SOC[%] ; Desired Voltage [mV]; Desired Current [mA]; Cell Voltage 1 [mV] ; Cell Voltage 2 [mV] ; Max_Error [%] ; Busvoltage[mV] ; Battery Temperature [°C] ; Charger Temperature [°C] ; Batterysystem ; Case ; PLace
009708;07.12.2020;04:14:25;Cycle          ;04.12.2018;FEY;;LION;49;14500;7200;192;3;97;98;8400;;4144;4143;1;13012;25.64;27.54;30,3;BCS1388054;3;15
009708;08.12.2020;16:19:50;Stop           ;04.12.2018;FEY;;LION;49;14500;7200;192;3;97;98;8400;;4142;4141;1;13011;27.84;29.34;31,9;BCS1388054;3;15
009708;12.01.2021;04:17:47;Charge to 90% ;04.12.2018;FEY;;LION;49;14500;7200;192;3;96;97;8400;;4126;4126;1;13039;23.04;22.94;23,8;BCS1388054;7;14
009708;12.01.2021;04:57:20;Stop          ;04.12.2018;FEY;;LION;49;14500;7200;192;3;90;90;8400;3000;4060;4059;1;13035;26.44;29.24;31,5;BCS1388054;7;14
009708;12.01.2021;05:22:01;Cycle         ;04.12.2018;FEY;;LION;49;14500;7200;192;3;90;90;8400;3000;4065;4064;1;13035;26.64;27.44;30,4;BCS1388054;7;14
009708;13.01.2021;08:19:29;Stop          ;04.12.2018;FEY;;LION;49;14500;7200;224;4;97;100;8400;;4155;4155;1;13034;26.74;27.34;30,7;BCS1388054;7;14
009708;21.02.2021;13:44:56;Normalcharge  ;04.12.2018;FEY;;LION;49;14500;7200;192;5;52;54;8400;3000;3682;3681;1;13014;22.84;23.14;27,7;BCS1388054;5;11
009708;21.02.2021;19:31:36;Stop          ;04.12.2018;FEY;;LION;49;14500;7200;224;5;97;100;8400;;4154;4153;1;13008;27.04;27.24;30,6;BCS1388054;5;11
009708;06.04.2021;08:39:21;Normalcharge  ;04.12.2018;FEY;;LION;49;14500;7200;192;5;95;98;8400;;4114;4113;1;13032;21.54;24.34;28,1;BCS1388054;7;16
009708;06.04.2021;08:40:08;Stop          ;04.12.2018;FEY;;LION;49;14500;7200;192;5;95;98;8400;;4114;4113;1;12942;21.54;24.64;28,5;BCS1388054;7;16
009708;08.04.2021;07:59:03;Normalcharge  ;04.12.2018;FEY;;LION;49;14500;7200;192;5;95;98;8400;;4114;4113;1;13034;25.14;24.64;26,4;BCS1388054;7;16
009708;08.04.2021;07:59:16;Stop          ;04.12.2018;FEY;;LION;49;14500;7200;192;5;95;98;8400;;4114;4113;1;13031;25.14;24.84;26,6;BCS1388054;7;16
009708;08.04.2021;10:36:43;Normalcharge  ;04.12.2018;FEY;;LION;49;14500;7200;192;5;95;98;8400;;4114;4113;1;13031;25.34;25.74;28,9;BCS1388054;7;16
009708;08.04.2021;10:37:15;Stop          ;04.12.2018;FEY;;LION;49;14500;7200;192;5;95;98;8400;;4114;4113;1;12958;25.34;25.84;29,2;BCS1388054;7;16
009708;18.04.2021;08:34:46;Normalcharge  ;04.12.2018;FEY;;LION;49;14500;7200;192;5;95;98;8400;;4111;4109;1;13031;26.04;26.44;28,2;BCS1388054;7;16
009708;18.04.2021;08:34:54;Stop          ;04.12.2018;FEY;;LION;49;14500;7200;192;5;95;98;8400;;4111;4109;1;13028;26.04;26.44;28,4;BCS1388054;7;16
009708;04.08.2021;07:24:29;Normalcharge  ;04.12.2018;FEY;;LION;49;14500;7200;192;5;94;97;8400;;4081;4081;1;13026;30.04;29.84;31,5;BCS1388054;7;16
009708;04.08.2021;07:25:08;Stop          ;04.12.2018;FEY;;LION;49;14500;7200;192;5;94;97;8400;;4081;4081;1;12975;30.04;30.24;31,6;BCS1388054;7;16
009708;14.10.2021;12:39:58;Normalcharge  ;04.12.2018;FEY;;LION;49;14500;7200;192;5;68;70;8400;3000;3851;3850;1;12999;24.94;26.04;27,9;BCS1388054;2;11
009708;14.10.2021;12:41:25;Stop          ;04.12.2018;FEY;;LION;49;14500;7200;128;5;68;71;8400;3000;3944;3895;1;12558;25.04;28.94;28,2;BCS1388054;2;11
009708;07.02.2022;08:51:46;Normalcharge  ;04.12.2018;FEY;;LION;49;14500;7200;192;5;68;71;8400;3000;3825;3823;1;12990;22.24;23.64;25,6;BCS1388054;2;7
009708;07.02.2022;13:15:56;Stop          ;04.12.2018;FEY;;LION;49;14500;7200;224;5;97;100;8400;;4152;4153;1;12987;26.14;27.94;31,1;BCS1388054;2;7

File: 009709.txt
Serialnumber ; Date ; Time ; Action ; Date of Manufacture ; Manufacturer ; Battery Name ; Device-Chemistry ; Specification-Info ; Design-Capacity [mAh] ; Design-Voltage [mV] ; Battery Status ; Cycle Count ; SOC [%] ; Relativ SOC[%] ; Desired Voltage [mV]; Desired Current [mA]; Cell Voltage 1 [mV] ; Cell Voltage 2 [mV] ; Max_Error [%] ; Busvoltage[mV] ; Battery Temperature [°C] ; Charger Temperature [°C] ; Batterysystem ; Case ; PLace
009709;07.12.2020;04:14:32;Cycle         ;04.12.2018;FEY;;LION;49;14500;7200;192;4;96;98;8400;;4143;4142;1;13010;26.04;28.24;30,3;BCS1388054;5;5
009709;08.12.2020;16:20:01;Stop          ;04.12.2018;FEY;;LION;49;14500;7200;192;4;96;98;8400;;4141;4140;1;13010;28.04;29.64;31,7;BCS1388054;5;5
009709;12.01.2021;04:17:47;Charge to 90% ;04.12.2018;FEY;;LION;49;14500;7200;192;4;95;97;8400;;4126;4125;1;13030;23.24;23.24;23,8;BCS1388054;7;13
009709;12.01.2021;04:57:20;Stop          ;04.12.2018;FEY;;LION;49;14500;7200;192;4;90;90;8400;3000;4060;4059;1;13025;26.84;29.44;31,5;BCS1388054;7;13
009709;12.01.2021;05:22:01;Cycle         ;04.12.2018;FEY;;LION;49;14500;7200;192;4;90;90;8400;3000;4065;4065;1;13026;27.04;27.84;30,4;BCS1388054;7;13
009709;13.01.2021;08:19:29;Stop          ;04.12.2018;FEY;;LION;49;14500;7200;224;5;97;100;8400;;4155;4154;1;13027;26.94;27.64;30,7;BCS1388054;7;13
009709;22.02.2021;17:31:46;Normalcharge  ;04.12.2018;FEY;;LION;49;14500;7200;192;5;71;73;8400;3000;3880;3880;1;12995;26.64;28.24;31,6;BCS1388054;1;15
009709;22.02.2021;23:06:28;Stop          ;04.12.2018;FEY;;LION;49;14500;7200;224;5;97;100;8400;;4152;4151;1;12997;27.04;29.44;30,6;BCS1388054;1;15
009709;04.04.2021;11:50:33;Normalcharge  ;04.12.2018;FEY;;LION;49;14500;7200;192;6;58;60;8400;3000;3751;3750;1;13003;25.24;26.24;27,9;BCS1388054;2;14
009709;04.04.2021;11:51:48;Stop          ;04.12.2018;FEY;;LION;49;14500;7200;128;6;58;60;8400;3000;3844;3796;1;12588;25.24;29.44;28,6;BCS1388054;2;14
009709;05.04.2021;09:37:37;Charge to 60% ;04.12.2018;FEY;;LION;49;14500;7200;192;6;58;60;8400;3000;3755;3753;1;13009;25.44;26.64;26,0;BCS1388054;1;6
009709;05.04.2021;10:01:53;Stop          ;04.12.2018;FEY;;LION;49;14500;7200;192;6;58;60;8400;3000;3754;3753;1;13004;26.14;28.14;31,2;BCS1388054;1;6
009709;22.08.2021;11:08:18;Normalcharge  ;04.12.2018;FEY;;LION;49;14500;7200;192;6;55;57;8400;3000;3708;3708;1;13021;30.14;29.94;32,2;BCS1388054;7;6
009709;22.08.2021;11:08:51;Stop          ;04.12.2018;FEY;;LION;49;14500;7200;128;6;55;57;8400;3000;3739;3720;1;12837;30.14;31.04;32,6;BCS1388054;7;6
009709;25.08.2021;08:15:02;Charge to 60% ;04.12.2018;FEY;;LION;49;14500;7200;192;6;55;57;8400;3000;3708;3708;1;13010;30.64;31.44;33,2;BCS1388054;5;17
009709;25.08.2021;13:03:31;Stop          ;04.12.2018;FEY;;LION;49;14500;7200;192;6;58;60;8400;3000;3745;3745;1;13006;32.94;33.94;36,6;BCS1388054;5;17
009709;01.11.2021;10:18:16;Normalcharge  ;04.12.2018;FEY;;LION;49;14500;7200;192;6;55;57;8400;3000;3716;3716;1;13006;26.24;26.54;28,2;BCS1388054;3;9
009709;01.11.2021;10:18:56;Stop           ;04.12.2018;FEY;;LION;49;14500;7200;128;6;55;57;8400;3000;3795;3750;1;12621;26.24;28.04;28,2;BCS1388054;3;9
009709;01.11.2021;10:27:50;Normalcharge  ;04.12.2018;FEY;;LION;49;14500;7200;192;6;55;57;8400;3000;3717;3717;1;13005;26.24;26.74;27,8;BCS1388054;3;9
009709;01.11.2021;10:29:05;Stop           ;04.12.2018;FEY;;LION;49;14500;7200;128;6;55;57;8400;3000;3808;3761;1;12571;26.24;29.54;28,5;BCS1388054;3;9
009709;01.11.2021;10:32:24;Ladung auf 60% ;04.12.2018;FEY;;LION;49;14500;7200;192;6;55;57;8400;3000;3721;3721;1;13000;26.24;27.74;29,7;BCS1388054;3;9
009709;01.11.2021;15:19:46;Stop           ;04.12.2018;FEY;;LION;49;14500;7200;192;6;58;60;8400;3000;3751;3751;1;13000;29.34;30.14;32,7;BCS1388054;3;9
009709;09.02.2022;08:16:56;Normalcharge  ;04.12.2018;FEY;;LION;49;14500;7200;192;6;55;57;8400;3000;3714;3714;1;13001;22.84;22.44;23,1;BCS1388054;2;13
009709;09.02.2022;12:43:52;Stop          ;04.12.2018;FEY;;LION;49;14500;7200;224;6;97;100;8400;;4160;4160;1;12994;26.44;27.14;29,9;BCS1388054;2;13

File: 009754.txt
Serialnumber ; Date ; Time ; Action ; Date of Manufacture ; Manufacturer ; Battery Name ; Device-Chemistry ; Specification-Info ; Design-Capacity [mAh] ; Design-Voltage [mV] ; Battery Status ; Cycle Count ; SOC [%] ; Relativ SOC[%] ; Desired Voltage [mV]; Desired Current [mA]; Cell Voltage 1 [mV] ; Cell Voltage 2 [mV] ; Max_Error [%] ; Busvoltage[mV] ; Battery Temperature [°C] ; Charger Temperature [°C] ; Batterysystem ; Case ; PLace
009754;01.12.2020;07:00:16;Cycle         ;04.12.2018;FEY;;LION;49;14500;7200;16576;2;98;100;;;4165;4166;1;12996;25.64;25.64;26,7;BCS1388054;1;2
009754;01.12.2020;11:17:17;Stop          ;04.12.2018;FEY;;LION;49;14500;7200;16576;2;98;100;;;4165;4166;1;12991;26.94;28.84;28,8;BCS1388054;1;2
009754;07.02.2021;08:46:54;Normalcharge  ;04.12.2018;FEY;;LION;49;14500;7200;16576;2;93;95;;;4100;4100;1;13009;23.74;26.44;29,2;BCS1388054;3;13
009754;07.02.2021;11:52:16;Stop           ;04.12.2018;FEY;;LION;49;14500;7200;16576;2;93;95;;;4100;4100;1;13010;26.04;28.24;29,7;BCS1388054;3;13
009754;03.03.2021;08:17:29;Normalcharge  ;04.12.2018;FEY;;LION;49;14500;7200;192;2;84;86;8400;3000;4006;4007;1;13021;23.34;23.94;23,5;BCS1388054;4;16
009754;03.03.2021;10:32:46;Stop          ;04.12.2018;FEY;;LION;49;14500;7200;224;2;98;100;8400;;4157;4158;1;13016;28.44;29.64;32,0;BCS1388054;4;16
009754;04.04.2021;11:50:10;Normalcharge  ;04.12.2018;FEY;;LION;49;14500;7200;192;3;51;53;8400;3000;3680;3680;1;13013;25.04;26.94;27,8;BCS1388054;5;15
009754;04.04.2021;11:51:30;Stop          ;04.12.2018;FEY;;LION;49;14500;7200;128;3;51;54;8400;3000;3770;3720;1;12671;25.14;30.04;28,5;BCS1388054;5;15
009754;05.04.2021;09:38:11;Charge to 60% ;04.12.2018;FEY;;LION;49;14500;7200;192;3;51;54;8400;3000;3682;3682;1;13007;25.24;25.64;26,3;BCS1388054;4;17
009754;05.04.2021;10:13:52;Stop          ;04.12.2018;FEY;;LION;49;14500;7200;192;3;57;60;8400;3000;3751;3753;1;13003;27.74;29.84;32,1;BCS1388054;4;17
009754;22.08.2021;11:37:30;Normalcharge  ;04.12.2018;FEY;;LION;49;14500;7200;192;3;53;55;8400;3000;3695;3695;1;13000;21.84;29.34;31,9;BCS1388054;3;13
009754;22.08.2021;11:38:19;Stop           ;04.12.2018;FEY;;LION;49;14500;7200;128;3;53;55;8400;3000;3779;3733;1;12570;22.04;31.54;32,1;BCS1388054;3;13
009754;25.08.2021;08:15:15;Ladung auf 60% ;04.12.2018;FEY;;LION;49;14500;7200;192;3;53;55;8400;3000;3697;3697;1;12997;30.64;32.74;33,4;BCS1388054;3;13
009754;25.08.2021;08:40:44;Stop           ;04.12.2018;FEY;;LION;49;14500;7200;192;3;57;60;8400;3000;3751;3753;1;12997;32.64;36.74;36,1;BCS1388054;3;13
009754;01.11.2021;09:52:00;Normalcharge  ;04.12.2018;FEY;;LION;49;14500;7200;192;3;54;57;8400;3000;3715;3715;1;13011;25.94;26.04;26,3;BCS1388054;5;4
009754;01.11.2021;09:53:40;Stop          ;04.12.2018;FEY;;LION;49;14500;7200;128;3;54;57;8400;3000;3811;3759;1;12601;26.04;29.84;27,3;BCS1388054;5;4
009754;01.11.2021;10:02:19;Normalcharge  ;04.12.2018;FEY;;LION;49;14500;7200;192;3;54;57;8400;3000;3719;3720;1;13007;26.14;27.94;29,5;BCS1388054;5;4
009754;01.11.2021;10:03:11;Stop          ;04.12.2018;FEY;;LION;49;14500;7200;128;3;55;57;8400;3000;3807;3759;1;12596;26.14;29.84;29,3;BCS1388054;5;4
009754;01.11.2021;10:27:35;Normalcharge  ;04.12.2018;FEY;;LION;49;14500;7200;192;3;55;57;8400;3000;3720;3721;1;13004;26.44;26.74;27,8;BCS1388054;5;4
009754;01.11.2021;10:29:14;Stop          ;04.12.2018;FEY;;LION;49;14500;7200;128;3;55;57;8400;3000;3814;3767;1;12592;26.44;30.54;28,6;BCS1388054;5;4
009754;01.11.2021;10:32:33;Charge to 60% ;04.12.2018;FEY;;LION;49;14500;7200;192;3;55;57;8400;3000;3725;3726;1;13006;26.54;28.44;29,9;BCS1388054;5;4
009754;01.11.2021;11:11:47;Stop          ;04.12.2018;FEY;;LION;49;14500;7200;192;3;57;60;8400;3000;3755;3756;1;13005;27.84;29.54;32,5;BCS1388054;5;4
009754;07.02.2022;08:51:04;Normalcharge  ;04.12.2018;FEY;;LION;49;14500;7200;192;3;55;57;8400;3000;3712;3713;1;13007;22.44;21.64;25,1;BCS1388054;3;11
009754;07.02.2022;14:32:56;Stop           ;04.12.2018;FEY;;LION;49;14500;7200;224;3;96;100;8400;;4155;4157;1;13002;25.64;24.94;30,8;BCS1388054;3;11