Folder: Battery_sort_V2/reader/backup_20220214/Batterieverzeichnis_new (part 3)

File: 009768.txt
Serialnumber ; Date ; Time ; Action ; Date of Manufacture ; Manufacturer ; Battery Name ; Device-Chemistry ; Specification-Info ; Design-Capacity [mAh] ; Design-Voltage [mV] ; Battery Status ; Cycle Count ; SOC [%] ; Relativ SOC[%] ; Desired Voltage [mV]; Desired Current [mA]; Cell Voltage 1 [mV] ; Cell Voltage 2 [mV] ; Max_Error [%] ; Busvoltage[mV] ; Battery Temperature [°C] ; Charger Temperature [°C] ; Batterysystem ; Case ; PLace
009768;07.12.2020;04:14:32;Cycle         ;04.12.2018;FEY;;LION;49;14500;7200;16576;3;97;98;;;4144;4145;1;13010;25.84;27.64;30,3;BCS1388054;5;8
009768;08.12.2020;16:20:01;Stop          ;04.12.2018;FEY;;LION;49;14500;7200;16576;3;97;98;;;4141;4143;1;13010;28.04;29.24;31,7;BCS1388054;5;8
009768;07.02.2021;08:46:43;Normalcharge  ;04.12.2018;FEY;;LION;49;14500;7200;16576;3;95;97;;;4120;4121;1;13014;23.64;25.54;29,2;BCS1388054;1;16
009768;07.02.2021;11:52:07;Stop          ;04.12.2018;FEY;;LION;49;14500;7200;16576;3;95;97;;;4120;4121;1;13016;25.84;26.74;29,7;BCS1388054;1;16
009768;03.03.2021;08:17:46;Normalcharge  ;04.12.2018;FEY;;LION;49;14500;7200;192;4;65;66;8400;3000;3829;3830;1;13030;23.24;23.34;23,6;BCS1388054;7;2
009768;03.03.2021;10:54:05;Stop          ;04.12.2018;FEY;;LION;49;14500;7200;128;4;96;97;8400;3000;4180;4158;1;12720;29.94;33.84;31,4;BCS1388054;7;2
009768;03.03.2021;10:55:49;Normalcharge  ;04.12.2018;FEY;;LION;49;14500;7200;192;4;96;97;8400;3000;4127;4129;1;13026;29.84;31.54;30,6;BCS1388054;7;2
009768;03.03.2021;17:03:24;Stop          ;04.12.2018;FEY;;LION;49;14500;7200;224;4;99;100;8400;;4153;4156;1;13027;26.34;28.14;31,4;BCS1388054;7;2
009768;04.04.2021;11:49:55;Normalcharge  ;04.12.2018;FEY;;LION;49;14500;7200;192;4;55;57;8400;3000;3714;3716;1;13029;25.14;25.34;27,5;BCS1388054;7;13
009768;04.04.2021;11:51:17;Stop          ;04.12.2018;FEY;;LION;49;14500;7200;128;4;55;57;8400;3000;3802;3759;1;12744;25.24;28.84;28,4;BCS1388054;7;13
009768;05.04.2021;09:37:37;Charge to 60% ;04.12.2018;FEY;;LION;49;14500;7200;192;4;55;57;8400;3000;3717;3719;1;12994;25.14;25.44;26,0;BCS1388054;1;11
009768;05.04.2021;10:01:53;Stop          ;04.12.2018;FEY;;LION;49;14500;7200;192;4;58;60;8400;3000;3763;3768;1;12991;26.54;27.24;31,2;BCS1388054;1;11
009768;22.08.2021;11:08:18;Normalcharge  ;04.12.2018;FEY;;LION;49;14500;7200;192;4;55;57;8400;3000;3706;3708;1;13025;30.04;30.04;32,2;BCS1388054;7;4
009768;22.08.2021;11:08:50;Stop          ;04.12.2018;FEY;;LION;49;14500;7200;128;4;55;57;8400;3000;3736;3722;1;12845;30.04;31.44;32,6;BCS1388054;7;4
009768;25.08.2021;08:15:19;Charge to 60% ;04.12.2018;FEY;;LION;49;14500;7200;192;4;55;57;8400;3000;3706;3708;1;12993;30.34;33.14;33,5;BCS1388054;2;3
009768;25.08.2021;10:43:16;Stop          ;04.12.2018;FEY;;LION;49;14500;7200;192;4;58;60;8400;3000;3743;3745;1;12994;32.74;35.54;36,4;BCS1388054;2;3
009768;01.11.2021;09:51:48;Normalcharge  ;04.12.2018;FEY;;LION;49;14500;7200;192;4;55;57;8400;3000;3715;3717;1;13030;26.04;26.54;26,3;BCS1388054;7;8
009768;01.11.2021;09:53:51;Stop          ;04.12.2018;FEY;;LION;49;14500;7200;128;4;55;57;8400;3000;3809;3764;1;12679;26.14;30.74;27,4;BCS1388054;7;8
009768;01.11.2021;10:02:29;Normalcharge  ;04.12.2018;FEY;;LION;49;14500;7200;192;4;55;57;8400;3000;3719;3721;1;13024;26.24;28.74;29,5;BCS1388054;7;8
009768;01.11.2021;10:03:04;Stop          ;04.12.2018;FEY;;LION;49;14500;7200;128;4;55;57;8400;3000;3778;3749;1;12722;26.24;29.84;29,3;BCS1388054;7;8
009768;01.11.2021;10:27:23;Normalcharge  ;04.12.2018;FEY;;LION;49;14500;7200;192;4;55;57;8400;3000;3720;3722;1;13028;26.44;27.54;27,7;BCS1388054;7;8
009768;01.11.2021;10:29:22;Stop          ;04.12.2018;FEY;;LION;49;14500;7200;128;4;56;57;8400;3000;3815;3770;1;12675;26.44;31.44;28,6;BCS1388054;7;8
009768;01.11.2021;10:32:51;Charge to 60% ;04.12.2018;FEY;;LION;49;14500;7200;192;4;56;57;8400;3000;3725;3727;1;13026;26.54;29.24;29,7;BCS1388054;7;8
009768;01.11.2021;11:46:27;Stop          ;04.12.2018;FEY;;LION;49;14500;7200;192;4;58;60;8400;3000;3753;3755;1;13025;28.14;30.14;32,5;BCS1388054;7;8
009768;07.02.2022;08:50:57;Normalcharge  ;04.12.2018;FEY;;LION;49;14500;7200;192;4;56;58;8400;3000;3714;3716;1;13012;22.24;22.54;25,1;BCS1388054;4;12
009768;07.02.2022;13:19:09;Stop          ;04.12.2018;FEY;;LION;49;14500;7200;224;4;98;100;8400;;4161;4162;1;13009;26.64;26.14;29,7;BCS1388054;4;12

File: 009789.txt
Serialnumber ; Date ; Time ; Action ; Date of Manufacture ; Manufacturer ; Battery Name ; Device-Chemistry ; Specification-Info ; Design-Capacity [mAh] ; Design-Voltage [mV] ; Battery Status ; Cycle Count ; SOC [%] ; Relativ SOC[%] ; Desired Voltage [mV]; Desired Current [mA]; Cell Voltage 1 [mV] ; Cell Voltage 2 [mV] ; Max_Error [%] ; Busvoltage[mV] ; Battery Temperature [°C] ; Charger Temperature [°C] ; Batterysystem ; Case ; PLace
009789;07.12.2020;04:14:40;Cycle         ;04.12.2018;FEY;;LION;49;14500;7200;192;2;94;95;8400;3000;4101;4103;1;13022;25.74;27.44;30,3;BCS1388054;7;13
009789;08.12.2020;16:20:20;Stop          ;04.12.2018;FEY;;LION;49;14500;7200;224;3;97;100;8400;;4154;4156;1;13024;27.74;28.94;31,9;BCS1388054;7;13
009789;21.02.2021;13:43:19;Normalcharge  ;04.12.2018;FEY;;LION;49;14500;7200;192;3;91;95;8400;3000;4088;4089;1;13000;23.74;24.44;27,5;BCS1388054;1;10
009789;22.02.2021;17:08:49;Stop          ;04.12.2018;FEY;;LION;49;14500;7200;224;3;97;100;8400;;4148;4150;1;12999;26.14;26.14;30,0;BCS1388054;1;10
009789;06.04.2021;08:39:10;Normalcharge  ;04.12.2018;FEY;;LION;49;14500;7200;224;3;95;99;8400;;4128;4129;1;13017;21.94;25.14;28,1;BCS1388054;5;9
009789;06.04.2021;08:39:58;Stop          ;04.12.2018;FEY;;LION;49;14500;7200;224;3;95;99;8400;;4128;4129;1;13018;21.94;25.44;28,4;BCS1388054;5;9
009789;08.04.2021;07:58:30;Normalcharge  ;04.12.2018;FEY;;LION;49;14500;7200;224;3;95;99;8400;;4127;4128;1;13019;25.34;25.34;26,4;BCS1388054;5;9
009789;08.04.2021;07:59:28;Stop          ;04.12.2018;FEY;;LION;49;14500;7200;224;3;95;99;8400;;4127;4128;1;13020;25.34;25.84;26,7;BCS1388054;5;9
009789;08.04.2021;10:36:12;Normalcharge  ;04.12.2018;FEY;;LION;49;14500;7200;224;3;95;99;8400;;4127;4129;1;13018;25.44;26.14;28,6;BCS1388054;5;9
009789;08.04.2021;10:37:06;Stop          ;04.12.2018;FEY;;LION;49;14500;7200;224;3;95;99;8400;;4127;4129;1;13018;25.54;26.54;29,0;BCS1388054;5;9
009789;18.04.2021;08:34:16;Normalcharge  ;04.12.2018;FEY;;LION;49;14500;7200;224;3;95;99;8400;;4123;4124;1;13012;26.24;26.94;28,1;BCS1388054;5;9
009789;18.04.2021;08:34:27;Stop          ;04.12.2018;FEY;;LION;49;14500;7200;224;3;95;99;8400;;4123;4124;1;13012;26.24;27.04;28,2;BCS1388054;5;9
009789;04.08.2021;07:24:41;Normalcharge  ;04.12.2018;FEY;;LION;49;14500;7200;192;3;93;96;8400;;4090;4091;1;13009;30.24;30.74;31,5;BCS1388054;5;9
009789;04.08.2021;07:25:23;Stop          ;04.12.2018;FEY;;LION;49;14500;7200;192;3;93;96;8400;;4090;4091;1;13008;30.24;31.04;31,6;BCS1388054;5;9
009789;22.08.2021;11:37:17;Normalcharge  ;04.12.2018;FEY;;LION;49;14500;7200;192;3;91;95;8400;3000;4085;4086;1;12991;22.54;28.54;31,9;BCS1388054;6;7
009789;22.08.2021;11:37:57;Stop          ;04.12.2018;FEY;;LION;49;14500;7200;128;3;91;95;8400;3000;4104;4098;1;12863;22.64;29.84;32,0;BCS1388054;6;7
009789;12.10.2021;12:15:20;Normalcharge  ;04.12.2018;FEY;;LION;49;14500;7200;192;3;91;94;8400;3000;4071;4073;1;13003;24.04;26.14;27,9;BCS1388054;1;17
009789;12.10.2021;12:15:34;Stop          ;04.12.2018;FEY;;LION;49;14500;7200;192;3;91;94;8400;3000;4071;4072;1;12987;24.14;26.44;27,9;BCS1388054;1;17
009789;14.10.2021;12:40:08;Normalcharge  ;04.12.2018;FEY;;LION;49;14500;7200;192;3;86;90;8400;3000;4035;4036;1;13001;25.34;26.14;27,9;BCS1388054;4;15
009789;14.10.2021;12:41:44;Stop          ;04.12.2018;FEY;;LION;49;14500;7200;128;3;86;90;8400;3000;4112;4079;1;12656;25.44;29.54;28,4;BCS1388054;4;15
009789;28.12.2021;09:01:33;Normalcharge  ;04.12.2018;FEY;;LION;49;14500;7200;192;3;73;76;8400;3000;3893;3893;1;12994;23.64;23.84;25,4;BCS1388054;5;13
009789;28.12.2021;09:02:46;Stop          ;04.12.2018;FEY;;LION;49;14500;7200;128;3;73;76;8400;3000;3984;3938;1;12647;23.74;27.24;26,0;BCS1388054;5;13
009789;07.02.2022;08:50:47;Normalcharge  ;04.12.2018;FEY;;LION;49;14500;7200;192;3;73;76;8400;3000;3886;3886;1;12995;22.34;22.74;25,0;BCS1388054;6;13

File: 009802.txt
Serialnumber ; Date ; Time ; Action ; Date of Manufacture ; Manufacturer ; Battery Name ; Device-Chemistry ; Specification-Info ; Design-Capacity [mAh] ; Design-Voltage [mV] ; Battery Status ; Cycle Count ; SOC [%] ; Relativ SOC[%] ; Desired Voltage [mV]; Desired Current [mA]; Cell Voltage 1 [mV] ; Cell Voltage 2 [mV] ; Max_Error [%] ; Busvoltage[mV] ; Battery Temperature [°C] ; Charger Temperature [°C] ; Batterysystem ; Case ; PLace
009802;07.02.2021;08:46:48;Normalcharge  ;03.12.2018;FEY;;LION;49;14500;7200;192;3;96;97;8400;;4114;4115;1;13003;23.04;26.84;29,2;BCS1388054;2;3
009802;07.02.2021;11:52:12;Stop          ;03.12.2018;FEY;;LION;49;14500;7200;192;3;96;97;8400;;4114;4115;1;13005;25.24;28.24;29,7;BCS1388054;2;3
009802;03.03.2021;08:17:46;Normalcharge  ;03.12.2018;FEY;;LION;49;14500;7200;2768;4;;;8400;3000;3037;3061;1;13030;22.54;23.14;23,6;BCS1388054;7;18
009802;03.03.2021;10:54:05;Stop          ;03.12.2018;FEY;;LION;49;14500;7200;128;4;30;32;8400;3000;3677;3627;1;12690;28.74;36.34;31,4;BCS1388054;7;18
009802;09.03.2021;08:06:57;Normalcharge  ;03.12.2018;FEY;;LION;49;14500;7200;192;4;34;35;8400;3000;3582;3583;1;12997;22.64;23.44;23,9;BCS1388054;1;1
009802;09.03.2021;08:07:09;Stop          ;03.12.2018;FEY;;LION;49;14500;7200;192;4;34;35;8400;3000;3582;3583;1;12998;22.64;23.54;24,1;BCS1388054;1;1
009802;06.04.2021;08:39:21;Normalcharge  ;03.12.2018;FEY;;LION;49;14500;7200;192;4;75;77;8400;3000;3897;3897;1;13022;20.44;25.34;28,1;BCS1388054;7;10
009802;06.04.2021;08:40:08;Stop          ;03.12.2018;FEY;;LION;49;14500;7200;128;4;75;77;8400;3000;3962;3928;1;12936;20.54;27.14;28,5;BCS1388054;7;10
009802;08.04.2021;07:59:03;Normalcharge  ;03.12.2018;FEY;;LION;49;14500;7200;192;4;75;77;8400;3000;3897;3897;1;13022;24.54;25.64;26,4;BCS1388054;7;10
009802;08.04.2021;07:59:16;Stop          ;03.12.2018;FEY;;LION;49;14500;7200;192;4;75;77;8400;3000;3897;3897;1;13021;24.54;25.94;26,6;BCS1388054;7;10
009802;08.04.2021;10:36:43;Normalcharge  ;03.12.2018;FEY;;LION;49;14500;7200;192;4;75;77;8400;3000;3897;3897;1;13020;24.74;26.54;28,9;BCS1388054;7;10
009802;08.04.2021;10:37:15;Stop          ;03.12.2018;FEY;;LION;49;14500;7200;128;4;75;77;8400;3000;3933;3913;1;12952;24.74;27.64;29,2;BCS1388054;7;10
009802;18.04.2021;08:34:46;Normalcharge  ;03.12.2018;FEY;;LION;49;14500;7200;192;4;75;77;8400;3000;3895;3895;1;13020;25.44;27.24;28,2;BCS1388054;7;10
009802;18.04.2021;08:34:54;Stop          ;03.12.2018;FEY;;LION;49;14500;7200;192;4;75;77;8400;3000;3895;3895;1;13017;25.44;27.34;28,4;BCS1388054;7;10
009802;04.08.2021;07:24:29;Normalcharge  ;03.12.2018;FEY;;LION;49;14500;7200;192;4;75;77;8400;3000;3870;3871;1;13024;29.44;30.84;31,5;BCS1388054;7;10
009802;04.08.2021;07:25:08;Stop          ;03.12.2018;FEY;;LION;49;14500;7200;128;4;75;77;8400;3000;3894;3882;1;12978;29.44;32.14;31,6;BCS1388054;7;10
009802;25.08.2021;08:15:19;Charge to 60% ;03.12.2018;FEY;;LION;49;14500;7200;192;4;75;77;8400;3000;3866;3866;1;12994;29.74;31.84;33,5;BCS1388054;2;16
009802;25.08.2021;10:43:17;Stop          ;03.12.2018;FEY;;LION;49;14500;7200;192;4;57;60;8400;3000;3704;3705;1;12992;32.34;34.44;36,4;BCS1388054;2;16
009802;01.11.2021;09:52:15;Normalcharge  ;03.12.2018;FEY;;LION;49;14500;7200;192;4;49;52;8400;3000;3687;3688;1;12994;25.34;25.74;26,3;BCS1388054;2;13
009802;01.11.2021;09:53:18;Stop          ;03.12.2018;FEY;;LION;49;14500;7200;128;4;49;52;8400;3000;3774;3728;1;12512;25.34;28.54;26,8;BCS1388054;2;13
009802;01.11.2021;10:02:05;Normalcharge  ;03.12.2018;FEY;;LION;49;14500;7200;192;4;49;52;8400;3000;3689;3690;1;12989;25.44;27.54;29,5;BCS1388054;2;13
009802;01.11.2021;10:03:24;Stop          ;03.12.2018;FEY;;LION;49;14500;7200;128;4;49;52;8400;3000;3779;3732;1;12498;25.44;30.64;29,3;BCS1388054;2;13
009802;01.11.2021;10:18:11;Normalcharge  ;03.12.2018;FEY;;LION;49;14500;7200;192;4;49;52;8400;3000;3692;3692;1;12990;25.64;26.74;28,4;BCS1388054;2;13
009802;01.11.2021;10:18:48;Stop          ;03.12.2018;FEY;;LION;49;14500;7200;128;4;49;52;8400;3000;3745;3715;1;12597;25.64;28.24;28,2;BCS1388054;2;13
009802;01.11.2021;10:28:53;Normalcharge  ;03.12.2018;FEY;;LION;49;14500;7200;192;4;49;52;8400;3000;3692;3693;1;12989;25.74;27.04;28,2;BCS1388054;2;13
009802;01.11.2021;10:29:00;Stop          ;03.12.2018;FEY;;LION;49;14500;7200;192;4;49;52;8400;3000;3692;3693;1;12977;25.74;27.14;28,4;BCS1388054;2;13
009802;01.11.2021;10:32:00;Charge to 60% ;03.12.2018;FEY;;LION;49;14500;7200;192;4;49;52;8400;3000;3692;3693;1;12992;25.74;17.84;29,7;BCS1388054;2;13
009802;01.11.2021;11:53:40;Stop          ;03.12.2018;FEY;;LION;49;14500;7200;192;4;56;60;8400;3000;3784;3787;1;12993;28.14;30.84;32,5;BCS1388054;2;13
009802;09.02.2022;08:16:46;Normalcharge  ;03.12.2018;FEY;;LION;49;14500;7200;192;4;54;57;8400;3000;3731;3732;1;13014;21.84;22.34;23,1;BCS1388054;3;15
009802;09.02.2022;12:49:54;Stop           ;03.12.2018;FEY;;LION;49;14500;7200;224;4;95;100;8400;;4158;4158;1;13011;25.54;27.04;29,9;BCS1388054;3;15