Folder: Battery_sort_V2/reader/backup_20220214/Batterieverzeichnis (part 4)

File: 009821.txt
Serialnumber ; Date ; Time ; Action ; Date of Manufacture ; Manufacturer ; Battery Name ; Device-Chemistry ; Specification-Info ; Design-Capacity [mAh] ; Design-Voltage [mV] ; Battery Status ; Cycle Count ; SOC [%] ; Relativ SOC[%] ; Desired Voltage [mV]; Desired Current [mA]; Cell Voltage 1 [mV] ; Cell Voltage 2 [mV] ; Max_Error [%] ; Busvoltage[mV] ; Battery Temperature [°C] ; Charger Temperature [°C] ; Batterysystem ; Case ; PLace
009821;07.12.2020;04:14:36;Cycle         ;04.12.2018;FEY;;LION;49;14500;7200;192;2;98;98;8400;;4140;4139;1;13000;25.44;27.84;30,3;BCS1388054;6;9
009821;08.12.2020;16:20:13;Stop          ;04.12.2018;FEY;;LION;49;14500;7200;192;2;98;98;8400;;4138;4137;1;13001;27.64;29.44;31,9;BCS1388054;6;9
009821;07.02.2021;08:46:53;Normalcharge  ;04.12.2018;FEY;;LION;49;14500;7200;192;2;96;96;8400;;4115;4115;1;13002;23.44;26.24;29,2;BCS1388054;3;1
009821;07.02.2021;11:52:16;Stop           ;04.12.2018;FEY;;LION;49;14500;7200;192;2;96;96;8400;;4116;4115;1;13002;25.64;27.74;29,7;BCS1388054;3;1
009821;03.03.2021;08:17:35;Normalcharge  ;04.12.2018;FEY;;LION;49;14500;7200;192;3;76;77;8400;3000;3917;3917;1;13005;22.94;22.84;23,6;BCS1388054;5;10
009821;03.03.2021;11:26:36;Stop          ;04.12.2018;FEY;;LION;49;14500;7200;224;3;100;100;8400;;4157;4158;1;12999;28.44;28.64;31,5;BCS1388054;5;10
009821;04.04.2021;11:50:28;Normalcharge  ;04.12.2018;FEY;;LION;49;14500;7200;192;3;54;55;8400;3000;3696;3697;1;13003;24.84;26.14;27,9;BCS1388054;3;9
009821;04.04.2021;11:51:43;Stop           ;04.12.2018;FEY;;LION;49;14500;7200;128;3;54;55;8400;3000;3783;3738;1;12780;24.84;28.64;28,6;BCS1388054;3;9
009821;05.04.2021;09:37:46;Charge to 60% ;04.12.2018;FEY;;LION;49;14500;7200;192;3;54;55;8400;3000;3698;3699;1;13003;24.84;26.44;26,1;BCS1388054;2;4
009821;05.04.2021;10:03:48;Stop          ;04.12.2018;FEY;;LION;49;14500;7200;192;3;58;60;8400;3000;3762;3764;1;12999;26.84;29.74;31,4;BCS1388054;2;4
009821;22.08.2021;11:08:00;Normalcharge  ;04.12.2018;FEY;;LION;49;14500;7200;192;3;45;46;8400;3000;3623;3624;1;12997;22.24;29.24;32,1;BCS1388054;3;18
009821;22.08.2021;11:08:34;Stop           ;04.12.2018;FEY;;LION;49;14500;7200;128;3;45;46;8400;3000;3691;3654;1;12683;22.44;30.64;32,4;BCS1388054;3;18
009821;25.08.2021;08:13:04;Normalcharge  ;04.12.2018;FEY;;LION;49;14500;7200;192;3;45;45;8400;3000;3625;3626;1;13022;30.04;31.94;32,4;BCS1388054;7;1
009821;25.08.2021;08:13:16;Stop          ;04.12.2018;FEY;;LION;49;14500;7200;192;3;45;45;8400;3000;3625;3626;1;13012;30.04;32.14;32,5;BCS1388054;7;1
009821;25.08.2021;08:14:41;Charge to 60% ;04.12.2018;FEY;;LION;49;14500;7200;192;3;45;45;8400;3000;3625;3626;1;13020;30.04;32.34;33,0;BCS1388054;7;1
009821;25.08.2021;08:37:46;Stop          ;04.12.2018;FEY;;LION;49;14500;7200;128;3;49;50;8400;3000;3746;3698;1;12758;32.04;39.14;36,1;BCS1388054;7;1
009821;25.08.2021;08:38:03;Charge to 60% ;04.12.2018;FEY;;LION;49;14500;7200;128;3;49;50;8400;3000;3667;3670;1;13020;32.04;38.34;36,1;BCS1388054;7;1
009821;25.08.2021;13:26:35;Stop          ;04.12.2018;FEY;;LION;49;14500;7200;192;3;58;60;8400;3000;3736;3737;1;13020;32.34;34.64;36,4;BCS1388054;7;1
009821;01.11.2021;09:51:56;Normalcharge  ;04.12.2018;FEY;;LION;49;14500;7200;192;3;55;56;8400;3000;3707;3708;1;13008;25.54;26.44;26,3;BCS1388054;6;11
009821;01.11.2021;09:53:46;Stop          ;04.12.2018;FEY;;LION;49;14500;7200;128;3;55;56;8400;3000;3799;3753;1;12613;25.64;29.84;27,3;BCS1388054;6;11
009821;01.11.2021;10:02:24;Normalcharge  ;04.12.2018;FEY;;LION;49;14500;7200;192;3;55;56;8400;3000;3712;3712;1;13001;25.74;27.74;29,5;BCS1388054;6;11
009821;01.11.2021;10:03:07;Stop          ;04.12.2018;FEY;;LION;49;14500;7200;128;3;55;56;8400;3000;3796;3749;1;12611;25.74;29.34;29,3;BCS1388054;6;11
009821;01.11.2021;10:27:30;Normalcharge  ;04.12.2018;FEY;;LION;49;14500;7200;192;3;55;56;8400;3000;3713;3713;1;13003;26.04;27.14;27,8;BCS1388054;6;11
009821;01.11.2021;10:29:18;Stop          ;04.12.2018;FEY;;LION;49;14500;7200;128;3;56;57;8400;3000;3805;3758;1;12615;26.14;30.54;28,6;BCS1388054;6;11
009821;01.11.2021;10:32:43;Charge to 60% ;04.12.2018;FEY;;LION;49;14500;7200;192;3;56;57;8400;3000;;;1;13005;26.14;17.64;29,7;BCS1388054;6;11
009821;01.11.2021;14:25:59;Stop          ;04.12.2018;FEY;;LION;49;14500;7200;192;3;58;60;8400;3000;3751;3751;1;13007;27.94;29.44;32,6;BCS1388054;6;11
009821;07.02.2022;08:50:52;Normalcharge  ;04.12.2018;FEY;;LION;49;14500;7200;192;3;56;57;8400;3000;3711;3711;1;13020;21.94;22.24;25,0;BCS1388054;5;8
009821;07.02.2022;13:22:36;Stop          ;04.12.2018;FEY;;LION;49;14500;7200;224;3;98;100;8400;;4160;4161;1;13015;27.24;27.14;28,5;BCS1388054;5;8

File: 009827.txt
Serialnumber ; Date ; Time ; Action ; Date of Manufacture ; Manufacturer ; Battery Name ; Device-Chemistry ; Specification-Info ; Design-Capacity [mAh] ; Design-Voltage [mV] ; Battery Status ; Cycle Count ; SOC [%] ; Relativ SOC[%] ; Desired Voltage [mV]; Desired Current [mA]; Cell Voltage 1 [mV] ; Cell Voltage 2 [mV] ; Max_Error [%] ; Busvoltage[mV] ; Battery Temperature [°C] ; Charger Temperature [°C] ; Batterysystem ; Case ; PLace
009827;07.12.2020;04:14:32;Cycle         ;04.12.2018;FEY;;LION;49;14500;7200;16576;5;97;98;;;4151;4153;1;13004;25.74;27.64;30,3;BCS1388054;5;4
009827;08.12.2020;16:20:01;Stop          ;04.12.2018;FEY;;LION;49;14500;7200;16576;5;97;98;;;4149;4150;1;13001;27.74;29.04;31,7;BCS1388054;5;4
009827;07.02.2021;08:46:49;Normalcharge  ;04.12.2018;FEY;;LION;49;14500;7200;16576;5;96;97;;;4123;4124;1;13001;23.54;26.04;29,2;BCS1388054;2;8
009827;07.02.2021;11:52:12;Stop          ;04.12.2018;FEY;;LION;49;14500;7200;16576;5;96;97;;;4124;4125;1;13001;25.84;27.54;29,7;BCS1388054;2;8
009827;03.03.2021;08:17:40;Normalcharge  ;04.12.2018;FEY;;LION;49;14500;7200;192;5;69;70;8400;3000;3861;3860;1;13013;23.14;23.84;23,6;BCS1388054;6;11
009827;03.03.2021;11:56:52;Stop          ;04.12.2018;FEY;;LION;49;14500;7200;224;5;99;100;8400;;4156;4159;1;13006;28.14;28.94;31,7;BCS1388054;6;11
009827;06.04.2021;08:38:40;Normalcharge  ;04.12.2018;FEY;;LION;49;14500;7200;224;5;98;99;8400;;4131;4133;1;13009;21.14;25.94;28,1;BCS1388054;1;3
009827;06.04.2021;08:39:29;Stop          ;04.12.2018;FEY;;LION;49;14500;7200;224;5;98;99;8400;;4131;4133;1;13008;21.24;26.54;28,2;BCS1388054;1;3
009827;08.04.2021;07:57:52;Normalcharge  ;04.12.2018;FEY;;LION;49;14500;7200;224;5;98;99;8400;;4131;4133;1;13010;25.24;25.94;26,3;BCS1388054;1;3
009827;08.04.2021;07:59:50;Stop          ;04.12.2018;FEY;;LION;49;14500;7200;224;5;98;99;8400;;4131;4133;1;12952;25.24;27.24;26,8;BCS1388054;1;3
009827;08.04.2021;10:34:34;Normalcharge  ;04.12.2018;FEY;;LION;49;14500;7200;224;5;98;99;8400;;4131;4133;1;13002;26.24;28.44;28,1;BCS1388054;1;3
009827;08.04.2021;10:36:49;Stop          ;04.12.2018;FEY;;LION;49;14500;7200;224;5;98;99;8400;;4131;4133;1;12895;26.24;28.64;28,9;BCS1388054;1;3
009827;18.04.2021;08:33:24;Normalcharge  ;04.12.2018;FEY;;LION;49;14500;7200;224;5;98;99;8400;;4127;4129;1;13006;26.24;27.44;27,7;BCS1388054;1;3
009827;18.04.2021;08:33:29;Stop          ;04.12.2018;FEY;;LION;49;14500;7200;224;5;98;99;8400;;4127;4129;1;13003;26.24;27.54;27,7;BCS1388054;1;3
009827;04.08.2021;07:25:01;Normalcharge  ;04.12.2018;FEY;;LION;49;14500;7200;192;5;95;96;8400;;4094;4095;1;12997;30.54;32.04;31,5;BCS1388054;1;3
009827;04.08.2021;07:25:57;Stop          ;04.12.2018;FEY;;LION;49;14500;7200;192;5;95;96;8400;;4094;4095;1;12793;30.54;32.54;31,9;BCS1388054;1;3
009827;22.08.2021;11:07:59;Normalcharge  ;04.12.2018;FEY;;LION;49;14500;7200;192;6;67;69;8400;3000;3836;3836;1;12995;22.74;29.54;32,1;BCS1388054;3;2
009827;22.08.2021;11:08:33;Stop           ;04.12.2018;FEY;;LION;49;14500;7200;128;6;67;69;8400;3000;3897;3864;1;12711;22.84;30.74;32,4;BCS1388054;3;2
009827;12.10.2021;12:40:28;Normalcharge  ;04.12.2018;FEY;;LION;49;14500;7200;192;6;65;67;8400;3000;3808;3809;1;13025;23.94;28.24;28,8;BCS1388054;7;8
009827;12.10.2021;12:40:39;Stop          ;04.12.2018;FEY;;LION;49;14500;7200;192;6;65;67;8400;3000;3808;3809;1;13020;23.94;28.34;28,9;BCS1388054;7;8
009827;12.10.2021;12:43:08;Normalcharge  ;04.12.2018;FEY;;LION;49;14500;7200;192;6;65;67;8400;3000;3808;3809;1;13025;24.14;28.34;29,2;BCS1388054;7;8
009827;12.10.2021;12:43:28;Stop          ;04.12.2018;FEY;;LION;49;14500;7200;192;6;65;67;8400;3000;3808;3809;1;13019;24.14;28.74;29,2;BCS1388054;7;8
009827;14.10.2021;12:40:17;Normalcharge  ;04.12.2018;FEY;;LION;49;14500;7200;192;6;65;67;8400;3000;3808;3808;1;12996;23.64;27.24;28,1;BCS1388054;6;2
009827;14.10.2021;12:41:58;Stop          ;04.12.2018;FEY;;LION;49;14500;7200;128;6;65;67;8400;3000;3907;3857;1;12653;23.84;31.54;28,5;BCS1388054;6;2
009827;07.02.2022;08:51:04;Normalcharge  ;04.12.2018;FEY;;LION;49;14500;7200;192;6;59;61;8400;3000;3758;3759;1;12999;22.44;23.24;25,1;BCS1388054;3;8

File: 009838.txt
Serialnumber ; Date ; Time ; Action ; Date of Manufacture ; Manufacturer ; Battery Name ; Device-Chemistry ; Specification-Info ; Design-Capacity [mAh] ; Design-Voltage [mV] ; Battery Status ; Cycle Count ; SOC [%] ; Relativ SOC[%] ; Desired Voltage [mV]; Desired Current [mA]; Cell Voltage 1 [mV] ; Cell Voltage 2 [mV] ; Max_Error [%] ; Busvoltage[mV] ; Battery Temperature [°C] ; Charger Temperature [°C] ; Batterysystem ; Case ; PLace
009838;07.12.2020;04:14:21;Cycle         ;04.12.2018;FEY;;LION;49;14500;7200;224;2;98;99;8400;;4147;4148;1;12996;25.84;26.64;30,3;BCS1388054;2;11
009838;08.12.2020;16:19:44;Stop          ;04.12.2018;FEY;;LION;49;14500;7200;224;4;97;100;8400;;4153;4156;1;12998;27.74;28.04;31,9;BCS1388054;2;11
009838;03.03.2021;08:17:40;Normalcharge  ;04.12.2018;FEY;;LION;49;14500;7200;192;4;69;71;8400;3000;3863;3865;1;13000;23.24;23.74;23,6;BCS1388054;6;10
009838;03.03.2021;11:56:52;Stop          ;04.12.2018;FEY;;LION;49;14500;7200;224;4;97;100;8400;;4158;4160;1;12992;28.64;29.34;31,7;BCS1388054;6;10
009838;06.04.2021;08:38:40;Normalcharge  ;04.12.2018;FEY;;LION;49;14500;7200;224;4;96;99;8400;;4133;4135;1;12999;21.34;25.04;28,1;BCS1388054;1;4
009838;06.04.2021;08:39:29;Stop          ;04.12.2018;FEY;;LION;49;14500;7200;224;4;96;99;8400;;4133;4135;1;12998;21.44;25.44;28,2;BCS1388054;1;4
009838;08.04.2021;07:57:52;Normalcharge  ;04.12.2018;FEY;;LION;49;14500;7200;224;4;96;99;8400;;4132;4134;1;13000;25.34;25.04;26,3;BCS1388054;1;4
009838;08.04.2021;07:59:50;Stop          ;04.12.2018;FEY;;LION;49;14500;7200;224;4;96;99;8400;;4133;4134;1;12944;25.34;26.04;26,8;BCS1388054;1;4
009838;08.04.2021;10:34:34;Normalcharge  ;04.12.2018;FEY;;LION;49;14500;7200;224;4;96;99;8400;;4133;4134;1;12995;26.24;27.04;28,1;BCS1388054;1;4
009838;08.04.2021;10:36:49;Stop          ;04.12.2018;FEY;;LION;49;14500;7200;224;4;96;99;8400;;4133;4134;1;12886;26.24;27.14;28,9;BCS1388054;1;4
009838;18.04.2021;08:33:24;Normalcharge  ;04.12.2018;FEY;;LION;49;14500;7200;224;4;95;99;8400;;4128;4130;1;12992;26.24;26.44;27,7;BCS1388054;1;4
009838;18.04.2021;08:33:29;Stop          ;04.12.2018;FEY;;LION;49;14500;7200;224;4;95;99;8400;;4128;4130;1;12990;26.24;26.54;27,7;BCS1388054;1;4
009838;04.08.2021;07:25:01;Normalcharge  ;04.12.2018;FEY;;LION;49;14500;7200;192;4;93;96;8400;;4094;4095;1;12989;30.64;30.94;31,5;BCS1388054;1;4
009838;04.08.2021;07:25:57;Stop          ;04.12.2018;FEY;;LION;49;14500;7200;192;4;93;96;8400;;4094;4095;1;12783;30.64;31.24;31,9;BCS1388054;1;4
009838;22.08.2021;11:07:59;Normalcharge  ;04.12.2018;FEY;;LION;49;14500;7200;192;4;69;72;8400;3000;3862;3864;1;12997;22.74;29.34;32,1;BCS1388054;3;7
009838;22.08.2021;11:08:33;Stop           ;04.12.2018;FEY;;LION;49;14500;7200;128;4;69;72;8400;3000;3921;3892;1;12693;22.84;30.44;32,4;BCS1388054;3;7
009838;12.10.2021;12:58:56;Normalcharge  ;04.12.2018;FEY;;LION;49;14500;7200;192;4;69;72;8400;3000;3852;3854;1;12983;23.54;26.14;28,5;BCS1388054;6;16
009838;12.10.2021;12:59:25;Stop          ;04.12.2018;FEY;;LION;49;14500;7200;192;4;69;72;8400;3000;3852;3854;1;12942;23.54;27.14;28,6;BCS1388054;6;16
009838;14.10.2021;12:40:17;Normalcharge  ;04.12.2018;FEY;;LION;49;14500;7200;192;4;69;72;8400;3000;3852;3854;1;12997;23.94;25.94;28,1;BCS1388054;6;1
009838;14.10.2021;12:41:58;Stop          ;04.12.2018;FEY;;LION;49;14500;7200;128;4;70;72;8400;3000;3944;3900;1;12657;24.14;29.94;28,5;BCS1388054;6;1
009838;07.02.2022;08:51:04;Normalcharge  ;04.12.2018;FEY;;LION;49;14500;7200;192;4;70;72;8400;3000;3825;3827;1;12999;22.44;22.04;25,1;BCS1388054;3;6