Folder: Battery_sort_V2/reader/backup_20220214/Batterieverzeichnis (part 3)

File: 009679.txt
Serialnumber ; Date ; Time ; Action ; Date of Manufacture ; Manufacturer ; Battery Name ; Device-Chemistry ; Specification-Info ; Design-Capacity [mAh] ; Design-Voltage [mV] ; Battery Status ; Cycle Count ; SOC [%] ; Relativ SOC[%] ; Desired Voltage [mV]; Desired Current [mA]; Cell Voltage 1 [mV] ; Cell Voltage 2 [mV] ; Max_Error [%] ; Busvoltage[mV] ; Battery Temperature [°C] ; Charger Temperature [°C] ; Batterysystem ; Case ; PLace
009679;10.12.2019;15:28:40;Charge to 30% ;04.12.2018;FEY;;LION;49;14500;7200;224;50;92;99;8400;;4132;4132;1;13008;23.04;23.94;27,1;BCS1388054;2;11
009679;10.12.2019;20:48:37;Stop          ;04.12.2018;FEY;;LION;49;14500;7200;192;50;29;30;8400;3000;3562;3562;1;13006;33.14;31.64;33,2;BCS1388054;2;11
009679;11.12.2019;08:48:24;Fastcharge    ;04.12.2018;FEY;;LION;49;14500;7200;192;50;29;30;8400;3000;3569;3569;1;13007;26.34;26.74;31,9;BCS1388054;2;11
009679;11.12.2019;13:39:47;Stop          ;04.12.2018;FEY;;LION;49;14500;7200;224;50;94;100;8400;;4160;4161;1;13006;29.84;28.94;32,5;BCS1388054;2;11
009679;11.12.2019;15:46:18;Charge to 10% ;04.12.2018;FEY;;LION;49;14500;7200;224;50;95;99;8400;;4152;4152;1;13007;27.14;27.24;31,4;BCS1388054;2;11
009679;11.12.2019;22:49:04;Stop          ;04.12.2018;FEY;;LION;49;14500;7200;192;52;10;10;8400;3000;3353;3352;1;13007;33.94;32.24;33,6;BCS1388054;2;11
009679;12.12.2019;08:44:52;Normalcharge  ;04.12.2018;FEY;;LION;49;14500;7200;192;52;9;10;8400;3000;3362;3362;1;13007;26.54;27.04;31,9;BCS1388054;2;11
009679;12.12.2019;16:40:06;Stop          ;04.12.2018;FEY;;LION;49;14500;7200;224;52;95;100;8400;;4161;4162;1;13007;29.04;28.64;31,7;BCS1388054;2;11
009679;13.12.2019;10:47:50;Charge to 10% ;04.12.2018;FEY;;LION;49;14500;7200;224;52;95;100;8400;;4149;4149;1;13007;26.54;27.14;32,0;BCS1388054;2;11
009679;13.12.2019;15:42:08;Cycle         ;04.12.2018;FEY;;LION;49;14500;7200;192;52;34;36;8400;3000;3499;3550;1;13573;32.94;35.64;34,6;BCS1388054;2;11
009679;13.12.2019;15:42:08;Stop          ;04.12.2018;FEY;;LION;49;14500;7200;192;52;34;36;8400;3000;3499;3550;1;13573;32.94;35.64;34,6;BCS1388054;2;11
009679;14.12.2019;22:48:51;Stop          ;04.12.2018;FEY;;LION;49;14500;7200;224;54;93;99;8400;;4150;4150;1;13008;26.64;27.04;32,0;BCS1388054;2;11
009679;16.12.2019;07:43:06;Charge to 10% ;04.12.2018;FEY;;LION;49;14500;7200;224;54;93;100;8400;;4144;4144;1;13009;26.24;26.44;31,9;BCS1388054;2;11
009679;16.12.2019;14:37:54;Stop          ;04.12.2018;FEY;;LION;49;14500;7200;192;55;10;10;8400;3000;3367;3366;1;13007;32.44;30.74;32,4;BCS1388054;2;11
009679;16.12.2019;14:44:03;Charge to 90% ;04.12.2018;FEY;;LION;49;14500;7200;192;55;10;10;8400;3000;3368;3367;1;13009;31.94;30.04;31,9;BCS1388054;2;11
009679;16.12.2019;20:51:09;Stop          ;04.12.2018;FEY;;LION;49;14500;7200;192;55;84;90;8400;3000;4055;4055;1;13009;31.24;29.74;31,6;BCS1388054;2;11
009679;17.12.2019;08:37:40;Fastcharge    ;04.12.2018;FEY;;LION;49;14500;7200;192;55;84;90;8400;3000;4046;4046;1;13008;26.34;26.74;31,6;BCS1388054;2;11
009679;17.12.2019;10:30:36;Stop          ;04.12.2018;FEY;;LION;49;14500;7200;224;55;94;100;8400;;4162;4164;1;13009;27.94;28.04;31,5;BCS1388054;2;11
009679;17.12.2019;13:38:22;Charge to 10% ;04.12.2018;FEY;;LION;49;14500;7200;224;55;94;100;8400;;4149;4150;1;13009;26.64;26.84;30,8;BCS1388054;2;11
009679;17.12.2019;20:36:00;Stop          ;04.12.2018;FEY;;LION;49;14500;7200;192;56;10;10;8400;3000;3365;3365;1;13007;33.74;31.94;33,6;BCS1388054;2;11
009679;18.12.2019;08:31:17;Fastcharge    ;04.12.2018;FEY;;LION;49;14500;7200;192;56;10;10;8400;3000;3373;3374;1;13009;26.54;26.94;31,6;BCS1388054;2;11
009679;18.12.2019;14:28:27;Stop          ;04.12.2018;FEY;;LION;49;14500;7200;224;56;94;100;8400;;4161;4163;1;13009;29.84;28.94;32,0;BCS1388054;2;11
009679;19.12.2019;08:23:50;Charge to 60% ;04.12.2018;FEY;;LION;49;14500;7200;224;56;95;100;8400;;4148;4150;1;13008;26.34;26.74;31,5;BCS1388054;2;11
009679;19.12.2019;11:32:11;Stop          ;04.12.2018;FEY;;LION;49;14500;7200;192;56;57;60;8400;3000;3769;3771;1;13007;33.74;32.34;34,0;BCS1388054;2;11
009679;19.12.2019;12:16:37;Cycle         ;04.12.2018;FEY;;LION;49;14500;7200;192;56;57;60;8400;3000;3778;3780;1;13008;30.34;29.04;32,7;BCS1388054;2;11
009679;20.12.2019;17:35:47;Stop          ;04.12.2018;FEY;;LION;49;14500;7200;224;58;93;100;8400;;4151;4151;1;13008;26.64;26.74;31,1;BCS1388054;2;11
009679;06.01.2020;06:34:42;Charge to 60% ;04.12.2018;FEY;;LION;49;14500;7200;224;58;92;99;8400;;4122;4121;1;13009;26.44;26.74;31,9;BCS1388054;2;11
009679;06.01.2020;09:32:11;Stop          ;04.12.2018;FEY;;LION;49;14500;7200;192;58;56;60;8400;3000;3771;3770;1;13008;32.94;31.64;33,2;BCS1388054;2;11
009679;06.01.2020;09:50:30;Fastcharge    ;04.12.2018;FEY;;LION;49;14500;7200;192;58;56;60;8400;3000;3777;3777;1;13009;31.54;29.74;32,7;BCS1388054;2;11
009679;06.01.2020;13:08:34;Stop          ;04.12.2018;FEY;;LION;49;14500;7200;224;58;93;100;8400;;4160;4161;1;13010;29.34;28.44;31,6;BCS1388054;2;11

File: 009773.txt
Serialnumber ; Date ; Time ; Action ; Date of Manufacture ; Manufacturer ; Battery Name ; Device-Chemistry ; Specification-Info ; Design-Capacity [mAh] ; Design-Voltage [mV] ; Battery Status ; Cycle Count ; SOC [%] ; Relativ SOC[%] ; Desired Voltage [mV]; Desired Current [mA]; Cell Voltage 1 [mV] ; Cell Voltage 2 [mV] ; Max_Error [%] ; Busvoltage[mV] ; Battery Temperature [°C] ; Charger Temperature [°C] ; Batterysystem ; Case ; PLace
009773;12.01.2021;04:16:00;Charge to 90% ;04.12.2018;FEY;;LION;49;14500;7200;16576;1;88;97;;;4134;4134;1;13005;23.04;21.64;23,0;BCS1388054;1;10
009773;12.01.2021;04:16:03;Stop          ;04.12.2018;FEY;;LION;49;14500;7200;16576;1;88;97;;;4134;4134;1;13006;23.04;22.34;23,0;BCS1388054;1;10
009773;12.01.2021;04:17:15;Charge to 90% ;04.12.2018;FEY;;LION;49;14500;7200;16576;1;88;97;;;4135;4134;1;13005;23.04;22.84;23,5;BCS1388054;1;10
009773;12.01.2021;04:55:18;Stop          ;04.12.2018;FEY;;LION;49;14500;7200;192;2;83;90;8400;3000;4068;4067;1;12998;26.54;28.64;31,7;BCS1388054;1;10
009773;12.01.2021;05:21:33;Cycle         ;04.12.2018;FEY;;LION;49;14500;7200;192;2;83;90;8400;3000;4073;4072;1;12999;26.64;26.74;30,6;BCS1388054;1;10
009773;13.01.2021;08:18:34;Stop          ;04.12.2018;FEY;;LION;49;14500;7200;224;3;95;100;8400;;4155;4155;1;12998;26.54;26.64;30,7;BCS1388054;1;10
009773;21.02.2021;13:45:29;Normalcharge  ;04.12.2018;FEY;;LION;49;14500;7200;192;3;51;54;8400;3000;3686;3687;1;12995;22.74;23.94;27,8;BCS1388054;6;13
009773;06.04.2021;08:38:46;Normalcharge  ;04.12.2018;FEY;;LION;49;14500;7200;224;3;94;99;8400;;4128;4127;1;13012;20.34;25.84;28,1;BCS1388054;2;3
009773;06.04.2021;08:39:36;Stop          ;04.12.2018;FEY;;LION;49;14500;7200;224;3;94;99;8400;;4128;4128;1;13009;20.44;26.34;28,2;BCS1388054;2;3
009773;08.04.2021;07:57:57;Normalcharge  ;04.12.2018;FEY;;LION;49;14500;7200;224;3;94;99;8400;;4127;4127;1;13011;25.24;25.84;26,3;BCS1388054;2;3
009773;08.04.2021;07:59:45;Stop          ;04.12.2018;FEY;;LION;49;14500;7200;224;3;94;99;8400;;4127;4127;1;13009;25.24;27.14;26,8;BCS1388054;2;3
009773;08.04.2021;10:35:00;Normalcharge  ;04.12.2018;FEY;;LION;49;14500;7200;224;3;94;99;8400;;4127;4127;1;13011;25.64;26.34;28,1;BCS1388054;2;3
009773;08.04.2021;10:36:53;Stop          ;04.12.2018;FEY;;LION;49;14500;7200;224;3;94;99;8400;;4127;4127;1;13008;25.64;27.64;28,9;BCS1388054;2;3
009773;18.04.2021;08:33:36;Normalcharge  ;04.12.2018;FEY;;LION;49;14500;7200;224;3;94;99;8400;;4123;4123;1;13010;26.14;27.54;27,7;BCS1388054;2;3
009773;18.04.2021;08:33:44;Stop          ;04.12.2018;FEY;;LION;49;14500;7200;224;3;94;99;8400;;4124;4123;1;13010;26.14;27.54;27,8;BCS1388054;2;3
009773;04.08.2021;07:24:55;Normalcharge  ;04.12.2018;FEY;;LION;49;14500;7200;192;3;92;96;8400;;4092;4091;1;13001;30.44;31.84;31,5;BCS1388054;2;3
009773;04.08.2021;07:25:47;Stop          ;04.12.2018;FEY;;LION;49;14500;7200;192;3;92;96;8400;;4091;4091;1;13000;30.44;32.44;31,9;BCS1388054;2;3
009773;22.08.2021;11:08:04;Normalcharge  ;04.12.2018;FEY;;LION;49;14500;7200;2768;5;;;8400;3000;3107;3109;1;13003;22.84;30.14;32,1;BCS1388054;4;1
009773;22.08.2021;11:08:37;Stop          ;04.12.2018;FEY;;LION;49;14500;7200;144;5;;;8400;3000;3148;3139;1;12719;22.94;30.94;32,5;BCS1388054;4;1
009773;25.08.2021;08:13:04;Normalcharge  ;04.12.2018;FEY;;LION;49;14500;7200;720;5;;;8400;3000;3113;3115;1;13020;30.34;31.64;32,4;BCS1388054;7;2
009773;25.08.2021;08:13:16;Stop          ;04.12.2018;FEY;;LION;49;14500;7200;720;5;;;8400;3000;3113;3115;1;13010;30.34;31.94;32,5;BCS1388054;7;2
009773;25.08.2021;08:14:41;Charge to 60% ;04.12.2018;FEY;;LION;49;14500;7200;720;5;;;8400;3000;3113;3115;1;13018;30.34;32.14;33,0;BCS1388054;7;2
009773;25.08.2021;08:37:46;Stop          ;04.12.2018;FEY;;LION;49;14500;7200;144;5;4;4;8400;3000;3469;3419;1;12762;31.74;39.34;36,1;BCS1388054;7;2
009773;25.08.2021;08:38:03;Charge to 60% ;04.12.2018;FEY;;LION;49;14500;7200;144;5;4;4;8400;3000;3373;3376;1;13019;31.74;38.44;36,1;BCS1388054;7;2
009773;25.08.2021;13:26:35;Stop          ;04.12.2018;FEY;;LION;49;14500;7200;192;5;56;60;8400;3000;3756;3757;1;13020;33.04;34.54;36,4;BCS1388054;7;2
009773;01.11.2021;09:51:56;Normalcharge  ;04.12.2018;FEY;;LION;49;14500;7200;192;5;54;57;8400;3000;3713;3713;1;12994;25.74;26.34;26,3;BCS1388054;6;10
009773;01.11.2021;09:53:46;Stop          ;04.12.2018;FEY;;LION;49;14500;7200;128;5;55;57;8400;3000;3806;3760;1;12608;25.84;30.34;27,3;BCS1388054;6;10
009773;01.11.2021;10:02:24;Normalcharge  ;04.12.2018;FEY;;LION;49;14500;7200;192;5;55;57;8400;3000;3718;3718;1;12988;25.94;28.04;29,5;BCS1388054;6;10
009773;01.11.2021;10:03:07;Stop          ;04.12.2018;FEY;;LION;49;14500;7200;128;5;55;57;8400;3000;3804;3756;1;12606;25.94;29.74;29,3;BCS1388054;6;10
009773;01.11.2021;10:27:30;Normalcharge  ;04.12.2018;FEY;;LION;49;14500;7200;192;5;55;57;8400;3000;3719;3719;1;12991;26.14;27.14;27,8;BCS1388054;6;10
009773;01.11.2021;10:29:18;Stop          ;04.12.2018;FEY;;LION;49;14500;7200;128;5;55;58;8400;3000;3813;3765;1;12609;26.24;31.04;28,6;BCS1388054;6;10
009773;01.11.2021;14:25:59;Stop          ;04.12.2018;FEY;;LION;49;14500;7200;192;5;57;60;8400;3000;3749;3749;1;12987;28.24;29.74;32,6;BCS1388054;6;10
009773;07.02.2022;08:50:52;Normalcharge  ;04.12.2018;FEY;;LION;49;14500;7200;192;5;54;56;8400;3000;3707;3707;1;13020;22.14;22.34;25,0;BCS1388054;5;9
009773;07.02.2022;13:22:36;Stop          ;04.12.2018;FEY;;LION;49;14500;7200;224;5;96;100;8400;;4159;4159;1;13015;27.24;26.84;28,5;BCS1388054;5;9

File: 009810.txt
Serialnumber ; Date ; Time ; Action ; Date of Manufacture ; Manufacturer ; Battery Name ; Device-Chemistry ; Specification-Info ; Design-Capacity [mAh] ; Design-Voltage [mV] ; Battery Status ; Cycle Count ; SOC [%] ; Relativ SOC[%] ; Desired Voltage [mV]; Desired Current [mA]; Cell Voltage 1 [mV] ; Cell Voltage 2 [mV] ; Max_Error [%] ; Busvoltage[mV] ; Battery Temperature [°C] ; Charger Temperature [°C] ; Batterysystem ; Case ; PLace
009810;07.12.2020;04:14:40;Cycle         ;03.12.2018;FEY;;LION;49;14500;7200;192;1;78;80;8400;3000;3937;3937;1;13024;25.14;26.74;30,3;BCS1388054;7;18
009810;08.12.2020;16:20:20;Stop          ;03.12.2018;FEY;;LION;49;14500;7200;224;2;96;100;8400;;4152;4152;1;13022;26.74;28.14;31,9;BCS1388054;7;18
009810;21.02.2021;13:43:19;Normalcharge  ;03.12.2018;FEY;;LION;49;14500;7200;192;2;94;98;8400;;4118;4118;1;12998;23.04;26.94;27,5;BCS1388054;1;15
009810;22.02.2021;17:08:49;Stop          ;03.12.2018;FEY;;LION;49;14500;7200;192;2;94;98;8400;;4116;4116;1;12996;25.64;28.84;30,0;BCS1388054;1;15
009810;04.04.2021;11:50:33;Normalcharge  ;03.12.2018;FEY;;LION;49;14500;7200;192;3;75;78;8400;3000;3915;3916;1;13001;24.44;25.74;27,9;BCS1388054;2;11
009810;04.04.2021;11:51:48;Stop          ;03.12.2018;FEY;;LION;49;14500;7200;128;3;75;79;8400;3000;4006;3960;1;12582;24.54;28.14;28,6;BCS1388054;2;11
009810;22.08.2021;11:07:55;Normalcharge  ;03.12.2018;FEY;;LION;49;14500;7200;192;3;60;63;8400;3000;3778;3779;1;13005;21.94;30.04;32,0;BCS1388054;2;6
009810;22.08.2021;11:08:28;Stop          ;03.12.2018;FEY;;LION;49;14500;7200;128;3;60;63;8400;3000;3820;3798;1;12622;22.04;30.94;32,4;BCS1388054;2;6
009810;25.08.2021;08:14:57;Charge to 60% ;03.12.2018;FEY;;LION;49;14500;7200;192;3;60;63;8400;3000;3779;3780;1;13006;29.94;32.54;33,2;BCS1388054;6;17
009810;25.08.2021;09:50:39;Stop          ;03.12.2018;FEY;;LION;49;14500;7200;192;3;58;60;8400;3000;3738;3739;1;13006;32.84;35.54;36,4;BCS1388054;6;17
009810;01.11.2021;10:18:21;Normalcharge  ;03.12.2018;FEY;;LION;49;14500;7200;192;3;55;57;8400;3000;3716;3717;1;13011;25.14;25.84;28,4;BCS1388054;4;18
009810;01.11.2021;10:19:03;Stop          ;03.12.2018;FEY;;LION;49;14500;7200;128;3;55;57;8400;3000;3799;3751;1;12557;25.14;27.64;28,2;BCS1388054;4;18
009810;01.11.2021;10:28:22;Normalcharge  ;03.12.2018;FEY;;LION;49;14500;7200;192;3;55;57;8400;3000;3717;3717;1;13011;25.34;26.04;27,9;BCS1388054;4;18
009810;01.11.2021;10:29:09;Stop          ;03.12.2018;FEY;;LION;49;14500;7200;128;3;55;57;8400;3000;3800;3754;1;12552;25.34;28.14;28,5;BCS1388054;4;18
009810;01.11.2021;10:32:29;Charge to 60% ;03.12.2018;FEY;;LION;49;14500;7200;192;3;55;57;8400;3000;3718;3719;1;13010;25.44;26.54;29,7;BCS1388054;4;18
009810;01.11.2021;15:19:33;Stop          ;03.12.2018;FEY;;LION;49;14500;7200;192;3;57;60;8400;3000;3748;3748;1;13010;27.94;28.94;32,7;BCS1388054;4;18
009810;07.02.2022;08:50:52;Normalcharge  ;03.12.2018;FEY;;LION;49;14500;7200;192;3;54;56;8400;3000;3711;3712;1;13004;21.74;21.84;25,0;BCS1388054;5;10
009810;07.02.2022;13:22:36;Stop          ;03.12.2018;FEY;;LION;49;14500;7200;224;3;96;100;8400;;4159;4158;1;12999;26.54;26.04;28,5;BCS1388054;5;10

File: 009817.txt
Serialnumber ; Date ; Time ; Action ; Date of Manufacture ; Manufacturer ; Battery Name ; Device-Chemistry ; Specification-Info ; Design-Capacity [mAh] ; Design-Voltage [mV] ; Battery Status ; Cycle Count ; SOC [%] ; Relativ SOC[%] ; Desired Voltage [mV]; Desired Current [mA]; Cell Voltage 1 [mV] ; Cell Voltage 2 [mV] ; Max_Error [%] ; Busvoltage[mV] ; Battery Temperature [°C] ; Charger Temperature [°C] ; Batterysystem ; Case ; PLace
009817;10.12.2019;15:28:40;Charge to 30% ;03.12.2018;FEY;;LION;49;14500;7200;224;51;94;99;8400;;4131;4131;1;13017;22.94;24.64;27,1;BCS1388054;2;9
009817;10.12.2019;20:48:37;Stop          ;03.12.2018;FEY;;LION;49;14500;7200;192;52;29;30;8400;3000;3556;3555;1;13016;34.14;34.04;33,2;BCS1388054;2;9
009817;11.12.2019;08:48:24;Fastcharge    ;03.12.2018;FEY;;LION;49;14500;7200;192;52;29;31;8400;3000;3568;3567;1;13016;26.44;27.84;31,9;BCS1388054;2;9
009817;11.12.2019;13:39:47;Stop          ;03.12.2018;FEY;;LION;49;14500;7200;224;52;96;100;8400;;4162;4162;1;13016;30.94;30.44;32,5;BCS1388054;2;9
009817;11.12.2019;15:46:18;Charge to 10% ;03.12.2018;FEY;;LION;49;14500;7200;224;52;97;100;8400;;4153;4154;1;13016;27.44;28.44;31,4;BCS1388054;2;9
009817;11.12.2019;22:49:04;Stop          ;03.12.2018;FEY;;LION;49;14500;7200;192;53;10;10;8400;3000;3349;3349;1;13015;35.14;35.34;33,6;BCS1388054;2;9
009817;12.12.2019;08:44:52;Normalcharge  ;03.12.2018;FEY;;LION;49;14500;7200;192;53;9;10;8400;3000;3364;3364;1;13017;26.64;28.14;31,9;BCS1388054;2;9
009817;12.12.2019;16:40:06;Stop          ;03.12.2018;FEY;;LION;49;14500;7200;224;53;97;100;8400;;4162;4162;1;13016;29.84;30.04;31,7;BCS1388054;2;9
009817;13.12.2019;10:47:50;Charge to 10% ;03.12.2018;FEY;;LION;49;14500;7200;224;53;97;100;8400;;4149;4149;1;13016;26.64;28.14;32,0;BCS1388054;2;9
009817;13.12.2019;15:42:08;Cycle         ;03.12.2018;FEY;;LION;49;14500;7200;192;54;36;37;8400;3000;3507;3557;1;13581;33.74;37.94;34,6;BCS1388054;2;9
009817;13.12.2019;15:42:08;Stop          ;03.12.2018;FEY;;LION;49;14500;7200;192;54;36;37;8400;3000;3507;3557;1;13581;33.74;37.94;34,6;BCS1388054;2;9
009817;14.12.2019;22:48:51;Stop          ;03.12.2018;FEY;;LION;49;14500;7200;224;55;95;100;8400;;4152;4152;1;13016;26.94;28.14;32,0;BCS1388054;2;9
009817;16.12.2019;07:43:06;Charge to 10% ;03.12.2018;FEY;;LION;49;14500;7200;224;55;95;100;8400;;4146;4146;1;13017;26.34;27.44;31,9;BCS1388054;2;9
009817;16.12.2019;14:37:54;Stop          ;03.12.2018;FEY;;LION;49;14500;7200;192;57;10;10;8400;3000;3266;3316;1;13015;33.74;35.84;32,4;BCS1388054;2;9
009817;16.12.2019;14:44:03;Charge to 90% ;03.12.2018;FEY;;LION;49;14500;7200;192;57;10;10;8400;3000;3361;3361;1;13016;33.34;31.54;31,9;BCS1388054;2;9
009817;16.12.2019;20:51:09;Stop          ;03.12.2018;FEY;;LION;49;14500;7200;128;57;86;90;8400;3000;4150;4100;1;13018;32.64;35.04;31,6;BCS1388054;2;9
009817;17.12.2019;08:37:40;Fastcharge    ;03.12.2018;FEY;;LION;49;14500;7200;192;57;86;90;8400;3000;4045;4045;1;13016;26.44;27.74;31,6;BCS1388054;2;9
009817;17.12.2019;10:30:36;Stop          ;03.12.2018;FEY;;LION;49;14500;7200;224;57;96;100;8400;;4161;4160;1;13017;28.24;29.34;31,5;BCS1388054;2;9
009817;17.12.2019;13:38:22;Charge to 10% ;03.12.2018;FEY;;LION;49;14500;7200;224;57;96;100;8400;;4150;4148;1;13016;26.84;27.94;30,8;BCS1388054;2;9
009817;17.12.2019;20:36:00;Stop          ;03.12.2018;FEY;;LION;49;14500;7200;192;58;10;10;8400;3000;3263;3312;1;13016;35.14;37.34;33,6;BCS1388054;2;9
009817;18.12.2019;08:31:17;Fastcharge    ;03.12.2018;FEY;;LION;49;14500;7200;192;58;10;10;8400;3000;3368;3367;1;13017;26.54;27.94;31,6;BCS1388054;2;9
009817;18.12.2019;14:28:27;Stop          ;03.12.2018;FEY;;LION;49;14500;7200;224;58;96;100;8400;;4164;4162;1;13017;31.04;30.64;32,0;BCS1388054;2;9
009817;19.12.2019;08:23:50;Charge to 60% ;03.12.2018;FEY;;LION;49;14500;7200;224;58;97;100;8400;;4149;4147;1;13017;26.44;27.84;31,5;BCS1388054;2;9
009817;19.12.2019;11:32:11;Stop          ;03.12.2018;FEY;;LION;49;14500;7200;192;58;58;60;8400;3000;3674;3723;1;13016;34.64;37.64;34,0;BCS1388054;2;9
009817;19.12.2019;12:16:37;Cycle         ;03.12.2018;FEY;;LION;49;14500;7200;192;58;58;60;8400;3000;3775;3774;1;13017;31.44;30.34;32,7;BCS1388054;2;9
009817;20.12.2019;17:35:47;Stop          ;03.12.2018;FEY;;LION;49;14500;7200;224;59;95;100;8400;;4152;4150;1;13017;26.94;27.84;31,1;BCS1388054;2;9
009817;06.01.2020;06:34:42;Charge to 60% ;03.12.2018;FEY;;LION;49;14500;7200;224;59;94;99;8400;;4122;4120;1;13018;26.54;27.74;31,9;BCS1388054;2;9
009817;06.01.2020;09:32:11;Stop          ;03.12.2018;FEY;;LION;49;14500;7200;192;59;58;60;8400;3000;3775;3775;1;13017;33.64;33.44;33,2;BCS1388054;2;9
009817;06.01.2020;09:50:30;Fastcharge    ;03.12.2018;FEY;;LION;49;14500;7200;192;59;58;60;8400;3000;3783;3783;1;13018;32.34;31.04;32,7;BCS1388054;2;9
009817;06.01.2020;13:08:34;Stop          ;03.12.2018;FEY;;LION;49;14500;7200;224;59;96;100;8400;;4161;4161;1;13019;30.44;29.84;31,6;BCS1388054;2;9

File: 009819.txt
Serialnumber ; Date ; Time ; Action ; Date of Manufacture ; Manufacturer ; Battery Name ; Device-Chemistry ; Specification-Info ; Design-Capacity [mAh] ; Design-Voltage [mV] ; Battery Status ; Cycle Count ; SOC [%] ; Relativ SOC[%] ; Desired Voltage [mV]; Desired Current [mA]; Cell Voltage 1 [mV] ; Cell Voltage 2 [mV] ; Max_Error [%] ; Busvoltage[mV] ; Battery Temperature [°C] ; Charger Temperature [°C] ; Batterysystem ; Case ; PLace
009819;10.12.2019;15:28:54;Charge to 30% ;03.12.2018;FEY;;LION;49;14500;7200;224;51;94;99;8400;;4130;4128;1;13015;23.04;25.14;27,1;BCS1388054;4;7
009819;10.12.2019;20:47:57;Stop          ;03.12.2018;FEY;;LION;49;14500;7200;192;52;29;30;8400;3000;3560;3559;1;13014;34.64;34.94;33,4;BCS1388054;4;7
009819;11.12.2019;08:48:41;Fastcharge    ;03.12.2018;FEY;;LION;49;14500;7200;192;52;29;30;8400;3000;3570;3569;1;13015;27.04;29.14;31,9;BCS1388054;4;7
009819;11.12.2019;13:42:44;Stop          ;03.12.2018;FEY;;LION;49;14500;7200;224;52;95;100;8400;;4163;4163;1;13015;31.14;31.34;31,9;BCS1388054;4;7
009819;11.12.2019;15:46:31;Charge to 10% ;03.12.2018;FEY;;LION;49;14500;7200;224;52;97;99;8400;;4155;4154;1;13015;27.84;29.44;31,4;BCS1388054;4;7
009819;11.12.2019;22:50:44;Stop          ;03.12.2018;FEY;;LION;49;14500;7200;192;53;10;10;8400;3000;3360;3359;1;13015;35.34;34.64;33,2;BCS1388054;4;7
009819;12.12.2019;08:45:03;Normalcharge  ;03.12.2018;FEY;;LION;49;14500;7200;192;53;9;10;8400;3000;3369;3368;1;13014;27.24;29.14;31,9;BCS1388054;4;7
009819;12.12.2019;16:41:48;Stop          ;03.12.2018;FEY;;LION;49;14500;7200;224;53;97;100;8400;;4161;4164;1;13015;30.24;30.84;31,5;BCS1388054;4;7
009819;13.12.2019;10:48:01;Charge to 10% ;03.12.2018;FEY;;LION;49;14500;7200;224;53;96;100;8400;;4149;4151;1;13013;27.24;29.34;32,0;BCS1388054;4;7
009819;13.12.2019;15:42:25;Stop          ;03.12.2018;FEY;;LION;49;14500;7200;192;54;35;36;8400;3000;3504;3556;1;13507;33.94;40.04;34,6;BCS1388054;4;7
009819;13.12.2019;15:42:27;Cycle         ;03.12.2018;FEY;;LION;49;14500;7200;192;54;35;36;8400;3000;3504;3556;1;13507;33.94;40.04;34,6;BCS1388054;4;7
009819;14.12.2019;22:44:28;Stop          ;03.12.2018;FEY;;LION;49;14500;7200;224;55;94;100;8400;;4152;4150;1;13014;27.34;29.24;32,0;BCS1388054;4;7
009819;16.12.2019;07:43:14;Charge to 10% ;03.12.2018;FEY;;LION;49;14500;7200;224;55;94;100;8400;;4146;4144;1;13015;27.04;28.74;31,9;BCS1388054;4;7
009819;16.12.2019;14:36:44;Stop          ;03.12.2018;FEY;;LION;49;14500;7200;192;57;10;10;8400;3000;3366;3365;1;13015;33.84;33.64;32,4;BCS1388054;4;7
009819;16.12.2019;14:44:13;Charge to 90% ;03.12.2018;FEY;;LION;49;14500;7200;192;57;10;10;8400;3000;3369;3367;1;13014;33.14;32.04;31,7;BCS1388054;4;7
009819;16.12.2019;20:50:27;Stop          ;03.12.2018;FEY;;LION;49;14500;7200;192;57;85;90;8400;3000;4059;4059;1;13016;33.04;32.84;31,6;BCS1388054;4;7
009819;17.12.2019;08:37:49;Fastcharge    ;03.12.2018;FEY;;LION;49;14500;7200;192;57;85;90;8400;3000;4046;4047;1;13014;27.14;29.04;31,6;BCS1388054;4;7
009819;17.12.2019;10:31:06;Stop          ;03.12.2018;FEY;;LION;49;14500;7200;224;57;95;100;8400;;4162;4163;1;13015;29.04;30.64;31,4;BCS1388054;4;7
009819;17.12.2019;13:38:32;Charge to 10% ;03.12.2018;FEY;;LION;49;14500;7200;224;57;95;100;8400;;4151;4151;1;13015;27.44;28.94;30,8;BCS1388054;4;7
009819;17.12.2019;20:34:29;Stop          ;03.12.2018;FEY;;LION;49;14500;7200;192;58;10;10;8400;3000;3365;3364;1;13013;35.54;35.14;34,1;BCS1388054;4;7
009819;18.12.2019;08:31:26;Fastcharge    ;03.12.2018;FEY;;LION;49;14500;7200;192;58;10;11;8400;3000;3375;3375;1;13015;27.14;29.04;31,6;BCS1388054;4;7
009819;18.12.2019;14:29:12;Stop          ;03.12.2018;FEY;;LION;49;14500;7200;224;58;95;100;8400;;4162;4164;1;13015;31.14;31.54;31,9;BCS1388054;4;7
009819;19.12.2019;08:23:58;Charge to 60% ;03.12.2018;FEY;;LION;49;14500;7200;224;58;96;100;8400;;4149;4151;1;13014;27.14;29.04;31,6;BCS1388054;4;7
009819;19.12.2019;11:30:18;Stop          ;03.12.2018;FEY;;LION;49;14500;7200;192;58;58;60;8400;3000;3767;3768;1;13013;35.24;36.74;34,6;BCS1388054;4;7
009819;19.12.2019;12:16:45;Cycle         ;03.12.2018;FEY;;LION;49;14500;7200;192;58;58;60;8400;3000;3781;3783;1;13014;31.54;31.64;32,7;BCS1388054;4;7
009819;20.12.2019;17:30:48;Stop          ;03.12.2018;FEY;;LION;49;14500;7200;224;59;95;100;8400;;4152;4152;1;13015;27.54;28.84;30,6;BCS1388054;4;7
009819;06.01.2020;06:34:50;Charge to 60% ;03.12.2018;FEY;;LION;49;14500;7200;192;59;93;98;8400;;4122;4123;1;13015;27.34;29.24;31,9;BCS1388054;4;7
009819;06.01.2020;09:30:33;Stop          ;03.12.2018;FEY;;LION;49;14500;7200;192;59;57;60;8400;3000;3771;3771;1;13015;34.34;35.64;33,7;BCS1388054;4;7
009819;06.01.2020;09:50:38;Fastcharge    ;03.12.2018;FEY;;LION;49;14500;7200;192;59;57;60;8400;3000;3782;3783;1;13016;32.74;32.24;32,7;BCS1388054;4;7
009819;06.01.2020;13:09:19;Stop          ;03.12.2018;FEY;;LION;49;14500;7200;224;59;95;100;8400;;4159;4160;1;13016;30.64;30.94;31,4;BCS1388054;4;7