Folder: Battery_sort_V2/reader/backup_20220214/Batterieverzeichnis_new

Note: reader/backup_20220214/Batterieverzeichnis_new/009571.txt
Serialnumber ; Date ; Time ; Action ; Date of Manufacture ; Manufacturer ; Battery Name ; Device-Chemistry ; Specification-Info ; Design-Capacity [mAh] ; Design-Voltage [mV] ; Battery Status ; Cycle Count ; SOC [%] ; Relativ SOC[%] ; Desired Voltage [mV]; Desired Current [mA]; Cell Voltage 1 [mV] ; Cell Voltage 2 [mV] ; Max_Error [%] ; Busvoltage[mV] ; Battery Temperature [°C] ; Charger Temperature [°C] ; Batterysystem ; Case ; PLace
009571;30.11.2020;09:44:38;Stop          ;03.12.2018;FEY;;LION;49;14500;7200;16576;3;100;100;;;4137;4135;1;12997;27.84;29.74;31,4;BCS1388054;2;17

Note: reader/backup_20220214/Batterieverzeichnis_new/009761.txt
009761;29.11.2020;04:33:37;Cycle          ;04.12.2018;FEY;;LION;49;14500;7200;192;1;98;98;8400;;4138;4137;1;13005;23.34;24.74;27,4;BCS1388054;3;1
009761;11.01.2021;08:38:56;Charge to 90% ;04.12.2018;FEY;;LION;49;14500;7200;192;1;96;96;8400;;4120;4119;1;12998;23.14;23.14;23,9;BCS1388054;1;2
009761;11.01.2021;09:07:26;Stop          ;04.12.2018;FEY;;LION;49;14500;7200;192;1;91;90;8400;3000;4040;4039;1;12992;24.84;29.84;26,7;BCS1388054;1;2
009761;12.01.2021;04:16:00;Charge to 90% ;04.12.2018;FEY;;LION;49;14500;7200;192;1;91;91;8400;3000;4066;4066;1;13001;23.44;22.74;23,0;BCS1388054;1;8
009761;12.01.2021;04:16:03;Stop          ;04.12.2018;FEY;;LION;49;14500;7200;192;1;91;91;8400;3000;4066;4066;1;13001;23.44;23.74;23,0;BCS1388054;1;8
009761;12.01.2021;04:17:15;Charge to 90% ;04.12.2018;FEY;;LION;49;14500;7200;192;1;91;91;8400;3000;4066;4066;1;13000;23.44;24.44;23,5;BCS1388054;1;8
009761;12.01.2021;04:55:18;Stop          ;04.12.2018;FEY;;LION;49;14500;7200;192;1;91;90;8400;3000;4061;4061;1;12996;25.94;30.94;31,7;BCS1388054;1;8
009761;12.01.2021;05:21:33;Cycle         ;04.12.2018;FEY;;LION;49;14500;7200;192;1;91;90;8400;3000;4062;4061;1;12997;26.74;28.74;30,6;BCS1388054;1;8
009761;13.01.2021;08:18:34;Stop          ;04.12.2018;FEY;;LION;49;14500;7200;224;2;98;100;8400;;4157;4156;1;12996;27.24;28.64;30,7;BCS1388054;1;8
009761;21.02.2021;13:43:19;Normalcharge  ;04.12.2018;FEY;;LION;49;14500;7200;192;3;84;85;8400;3000;3994;3994;1;13007;24.04;25.44;27,5;BCS1388054;1;6
009761;22.02.2021;17:08:49;Stop          ;04.12.2018;FEY;;LION;49;14500;7200;224;3;98;100;8400;;4149;4148;1;13006;26.44;26.44;30,0;BCS1388054;1;6
009761;06.04.2021;08:39:10;Normalcharge  ;04.12.2018;FEY;;LION;49;14500;7200;224;3;97;99;8400;;4128;4128;1;13014;22.34;25.04;28,1;BCS1388054;5;8
009761;06.04.2021;08:39:58;Stop          ;04.12.2018;FEY;;LION;49;14500;7200;224;3;97;99;8400;;4128;4128;1;13014;22.44;25.34;28,4;BCS1388054;5;8
009761;08.04.2021;07:58:30;Normalcharge  ;04.12.2018;FEY;;LION;49;14500;7200;224;3;97;99;8400;;4128;4128;1;13015;25.64;25.14;26,4;BCS1388054;5;8
009761;08.04.2021;07:59:28;Stop          ;04.12.2018;FEY;;LION;49;14500;7200;224;3;97;99;8400;;4128;4128;1;13015;25.64;25.64;26,7;BCS1388054;5;8
009761;08.04.2021;10:36:12;Normalcharge  ;04.12.2018;FEY;;LION;49;14500;7200;224;3;97;99;8400;;4128;4128;1;13014;25.84;26.04;28,6;BCS1388054;5;8
009761;08.04.2021;10:37:06;Stop          ;04.12.2018;FEY;;LION;49;14500;7200;224;3;97;99;8400;;4128;4128;1;13013;25.84;26.44;29,0;BCS1388054;5;8
009761;18.04.2021;08:34:16;Normalcharge  ;04.12.2018;FEY;;LION;49;14500;7200;224;3;96;99;8400;;4124;4123;1;13017;26.54;26.84;28,1;BCS1388054;5;8
009761;18.04.2021;08:34:27;Stop          ;04.12.2018;FEY;;LION;49;14500;7200;224;3;96;99;8400;;4124;4124;1;13017;26.54;26.94;28,2;BCS1388054;5;8
009761;04.08.2021;07:24:41;Normalcharge  ;04.12.2018;FEY;;LION;49;14500;7200;192;3;94;96;8400;;4093;4092;1;13014;30.64;30.64;31,5;BCS1388054;5;8
009761;04.08.2021;07:25:23;Stop          ;04.12.2018;FEY;;LION;49;145

File: 001071.txt
Serialnumber ; Date ; Time ; Action ; Date of Manufacture ; Manufacturer ; Battery Name ; Device-Chemistry ; Specification-Info ; Design-Capacity [mAh] ; Design-Voltage [mV] ; Battery Status ; Cycle Count ; SOC [%] ; Relativ SOC[%] ; Desired Voltage [mV]; Desired Current [mA]; Cell Voltage 1 [mV] ; Cell Voltage 2 [mV] ; Max_Error [%] ; Busvoltage[mV] ; Battery Temperature [°C] ; Charger Temperature [°C] ; Batterysystem ; Case ; PLace
001071;10.12.2019;15:29:15;Charge to 30% ;15.02.2018;FEY;;LION;49;14500;7200;224;21;94;99;8400;;4123;4123;1;13025;22.24;24.14;27,1;BCS1388054;7;15
001071;10.12.2019;20:46:56;Stop          ;15.02.2018;FEY;;LION;49;14500;7200;192;22;29;30;8400;3000;3557;3556;1;13024;33.04;32.84;33,5;BCS1388054;7;15
001071;11.12.2019;08:49:12;Fastcharge    ;15.02.2018;FEY;;LION;49;14500;7200;192;22;29;30;8400;3000;3567;3566;1;13024;25.74;27.04;31,9;BCS1388054;7;15
001071;11.12.2019;13:38:42;Stop          ;15.02.2018;FEY;;LION;49;14500;7200;224;22;95;100;8400;;4161;4161;1;13025;29.84;29.34;32,7;BCS1388054;7;15
001071;11.12.2019;15:46:56;Charge to 10% ;15.02.2018;FEY;;LION;49;14500;7200;224;22;97;100;8400;;4155;4154;1;13024;26.64;27.34;31,2;BCS1388054;7;15
001071;11.12.2019;22:51:50;Stop          ;15.02.2018;FEY;;LION;49;14500;7200;192;23;10;10;8400;3000;3352;3351;1;13024;33.84;32.14;33,0;BCS1388054;7;15
001071;12.12.2019;08:45:27;Normalcharge  ;15.02.2018;FEY;;LION;49;14500;7200;192;23;9;10;8400;3000;3362;3361;1;13025;25.94;27.14;31,7;BCS1388054;7;15
001071;12.12.2019;16:41:08;Stop          ;15.02.2018;FEY;;LION;49;14500;7200;224;23;96;100;8400;;4163;4163;1;13024;28.94;28.74;31,6;BCS1388054;7;15
001071;13.12.2019;10:48:13;Charge to 10% ;15.02.2018;FEY;;LION;49;14500;7200;224;23;96;100;8400;;4151;4151;1;13025;25.94;27.24;32,0;BCS1388054;7;15
001071;13.12.2019;13:48:48;Stop          ;15.02.2018;FEY;;LION;49;14500;7200;192;24;58;61;8400;3000;3691;3737;1;13536;34.24;40.54;36,8;BCS1388054;7;15
001071;16.12.2019;07:43:34;Charge to 10% ;15.02.2018;FEY;;LION;49;14500;7200;192;24;61;63;8400;3000;3790;3789;1;13025;22.34;26.04;31,7;BCS1388054;7;15
001071;16.12.2019;11:52:34;Stop          ;15.02.2018;FEY;;LION;49;14500;7200;192;25;10;10;8400;3000;3341;3340;1;13024;32.94;32.04;34,7;BCS1388054;7;15
001071;16.12.2019;14:44:25;Charge to 90% ;15.02.2018;FEY;;LION;49;14500;7200;192;25;9;10;8400;3000;3350;3349;1;13025;28.54;28.84;31,7;BCS1388054;7;15
001071;16.12.2019;20:53:59;Stop          ;15.02.2018;FEY;;LION;49;14500;7200;192;25;85;90;8400;3000;4029;4030;1;13025;31.54;30.44;32,1;BCS1388054;7;15
001071;17.12.2019;08:38:02;Fastcharge    ;15.02.2018;FEY;;LION;49;14500;7200;192;25;83;88;8400;3000;4020;4020;1;13024;25.84;27.04;31,6;BCS1388054;7;15
001071;17.12.2019;10:36:25;Stop          ;15.02.2018;FEY;;LION;49;14500;7200;224;25;95;100;8400;;4161;4161;1;13025;27.74;28.24;31,5;BCS1388054;7;15
001071;17.12.2019;13:38:44;Charge to 10% ;15.02.2018;FEY;;LION;49;14500;7200;224;25;95;100;8400;;4153;4152;1;13024;26.14;27.14;30,8;BCS1388054;7;15
001071;17.12.2019;20:42:03;Stop          ;15.02.2018;FEY;;LION;49;14500;7200;192;26;10;10;8400;3000;3356;3355;1;13024;33.64;31.54;32,6;BCS1388054;7;15
001071;18.12.2019;08:31:43;Fastcharge    ;15.02.2018;FEY;;LION;49;14500;7200;192;26;9;9;8400;3000;3365;3364;1;13024;25.94;27.14;31,6;BCS1388054;7;15
001071;18.12.2019;14:30:48;Stop          ;15.02.2018;FEY;;LION;49;14500;7200;224;26;94;100;8400;;4162;4162;1;13025;29.84;29.04;31,6;BCS1388054;7;15
001071;19.12.2019;08:24:17;Charge to 60% ;15.02.2018;FEY;;LION;49;14500;7200;224;26;95;100;8400;;4151;4151;1;13024;25.84;27.14;31,6;BCS1388054;7;15
001071;19.12.2019;11:28:26;Stop          ;15.02.2018;FEY;;LION;49;14500;7200;192;26;57;60;8400;3000;3768;3767;1;13024;33.54;35.34;35,1;BCS1388054;7;15
001071;19.12.2019;12:16:57;Cycle         ;15.02.2018;FEY;;LION;49;14500;7200;192;26;57;60;8400;3000;3784;3782;1;13027;30.04;29.14;32,7;BCS1388054;7;15
001071;20.12.2019;17:22:28;Stop          ;15.02.2018;FEY;;LION;49;14500;7200;224;27;94;100;8400;;4154;4153;1;13025;26.34;27.34;31,9;BCS1388054;7;15
001071;06.01.2020;06:35:02;Charge to 60% ;15.02.2018;FEY;;LION;49;14500;7200;192;27;93;98;8400;;4124;4123;1;13026;25.94;27.24;31,9;BCS1388054;7;15
001071;06.01.2020;09:29:52;Stop          ;15.02.2018;FEY;;LION;49;14500;7200;192;28;57;60;8400;3000;3767;3764;1;13026;32.74;34.24;34,0;BCS1388054;7;15
001071;06.01.2020;09:50:50;Fastcharge    ;15.02.2018;FEY;;LION;49;14500;7200;192;28;57;60;8400;3000;3780;3778;1;13027;31.14;29.64;32,7;BCS1388054;7;15
001071;06.01.2020;13:05:11;Stop          ;15.02.2018;FEY;;LION;49;14500;7200;224;28;95;100;8400;;4160;4159;1;13026;29.44;29.14;32,4;BCS1388054;7;15

File: 009547.txt
Serialnumber ; Date ; Time ; Action ; Date of Manufacture ; Manufacturer ; Battery Name ; Device-Chemistry ; Specification-Info ; Design-Capacity [mAh] ; Design-Voltage [mV] ; Battery Status ; Cycle Count ; SOC [%] ; Relativ SOC[%] ; Desired Voltage [mV]; Desired Current [mA]; Cell Voltage 1 [mV] ; Cell Voltage 2 [mV] ; Max_Error [%] ; Busvoltage[mV] ; Battery Temperature [°C] ; Charger Temperature [°C] ; Batterysystem ; Case ; PLace
009547;30.11.2020;09:42:55;Stop          ;03.12.2018;FEY;;LION;49;14500;7200;224;3;98;100;8400;;4154;4152;1;13029;27.54;28.14;31,7;BCS1388054;7;16
009547;07.02.2021;08:46:42;Normalcharge  ;03.12.2018;FEY;;LION;49;14500;7200;192;3;97;98;8400;;4122;4120;1;13000;23.64;25.04;29,2;BCS1388054;1;10
009547;07.02.2021;11:52:07;Stop          ;03.12.2018;FEY;;LION;49;14500;7200;192;3;97;98;8400;;4122;4120;1;13000;25.64;26.04;29,7;BCS1388054;1;10
009547;03.03.2021;08:17:21;Normalcharge  ;03.12.2018;FEY;;LION;49;14500;7200;192;3;93;94;8400;3000;4079;4078;1;13012;23.14;23.14;23,5;BCS1388054;3;5
009547;04.03.2021;07:53:39;Stop           ;03.12.2018;FEY;;LION;49;14500;7200;224;3;99;100;8400;;4147;4145;1;13006;26.34;27.14;31,5;BCS1388054;3;5
009547;04.04.2021;11:49:55;Normalcharge  ;03.12.2018;FEY;;LION;49;14500;7200;192;4;53;55;8400;3000;3691;3689;1;13022;24.94;25.94;27,5;BCS1388054;7;12
009547;04.04.2021;11:51:17;Stop          ;03.12.2018;FEY;;LION;49;14500;7200;128;4;54;55;8400;3000;3779;3730;1;12739;25.04;27.84;28,4;BCS1388054;7;12
009547;05.04.2021;09:37:37;Charge to 60% ;03.12.2018;FEY;;LION;49;14500;7200;192;4;54;55;8400;3000;3694;3692;1;13003;24.94;26.24;26,0;BCS1388054;1;14
009547;05.04.2021;10:01:53;Stop          ;03.12.2018;FEY;;LION;49;14500;7200;128;4;58;60;8400;3000;3767;3766;1;12999;27.04;34.04;31,2;BCS1388054;1;14
009547;22.08.2021;11:07:56;Normalcharge  ;03.12.2018;FEY;;LION;49;14500;7200;192;4;45;45;8400;3000;3623;3622;1;12993;22.44;29.84;32,0;BCS1388054;2;14
009547;22.08.2021;11:08:29;Stop          ;03.12.2018;FEY;;LION;49;14500;7200;128;4;45;45;8400;3000;3693;3652;1;12574;22.54;31.14;32,4;BCS1388054;2;14
009547;25.08.2021;08:14:57;Charge to 60% ;03.12.2018;FEY;;LION;49;14500;7200;192;4;44;45;8400;3000;3625;3623;1;12986;30.34;31.84;33,2;BCS1388054;6;7
009547;25.08.2021;09:50:39;Stop          ;03.12.2018;FEY;;LION;49;14500;7200;192;4;58;60;8400;3000;3738;3736;1;12985;34.34;34.94;36,4;BCS1388054;6;7
009547;01.11.2021;10:18:21;Normalcharge  ;03.12.2018;FEY;;LION;49;14500;7200;192;4;55;56;8400;3000;3707;3706;1;12991;25.84;27.14;28,4;BCS1388054;4;3
009547;01.11.2021;10:19:03;Stop          ;03.12.2018;FEY;;LION;49;14500;7200;128;4;55;56;8400;3000;3788;3741;1;12578;25.84;29.14;28,2;BCS1388054;4;3
009547;01.11.2021;10:28:22;Normalcharge  ;03.12.2018;FEY;;LION;49;14500;7200;192;4;55;56;8400;3000;3708;3707;1;12992;25.94;27.54;27,9;BCS1388054;4;3
009547;01.11.2021;10:29:09;Stop          ;03.12.2018;FEY;;LION;49;14500;7200;128;4;55;56;8400;3000;3794;3745;1;12574;25.94;29.74;28,5;BCS1388054;4;3
009547;01.11.2021;10:32:29;Charge to 60% ;03.12.2018;FEY;;LION;49;14500;7200;192;4;55;56;8400;3000;3710;3708;1;12991;25.94;28.34;29,7;BCS1388054;4;3
009547;01.11.2021;15:19:33;Stop          ;03.12.2018;FEY;;LION;49;14500;7200;192;4;58;60;8400;3000;3753;3751;1;12991;28.54;30.64;32,7;BCS1388054;4;3
009547;09.02.2022;08:16:56;Normalcharge  ;03.12.2018;FEY;;LION;49;14500;7200;192;4;57;58;8400;3000;3713;3711;1;12992;22.44;23.24;23,1;BCS1388054;2;7
009547;09.02.2022;12:43:52;Stop          ;03.12.2018;FEY;;LION;49;14500;7200;224;4;99;100;8400;;4161;4162;1;12988;26.54;27.84;29,9;BCS1388054;2;7

File: 009557.txt
Serialnumber ; Date ; Time ; Action ; Date of Manufacture ; Manufacturer ; Battery Name ; Device-Chemistry ; Specification-Info ; Design-Capacity [mAh] ; Design-Voltage [mV] ; Battery Status ; Cycle Count ; SOC [%] ; Relativ SOC[%] ; Desired Voltage [mV]; Desired Current [mA]; Cell Voltage 1 [mV] ; Cell Voltage 2 [mV] ; Max_Error [%] ; Busvoltage[mV] ; Battery Temperature [°C] ; Charger Temperature [°C] ; Batterysystem ; Case ; PLace
009557;25.08.2021;08:38:03;Charge to 60% ;04.12.2018;FEY;;LION;49;14500;7200;144;2;2;2;8400;3000;3063;3064;1;13015;27.84;34.24;36,1;BCS1388054;7;15
009557;25.08.2021;13:26:36;Stop          ;04.12.2018;FEY;;LION;49;14500;7200;128;2;58;60;8400;3000;3862;3812;1;13014;35.24;38.94;36,4;BCS1388054;7;15
009557;01.11.2021;09:52:06;Normalcharge  ;04.12.2018;FEY;;LION;49;14500;7200;192;2;52;52;8400;3000;3674;3674;1;13017;24.34;25.74;26,3;BCS1388054;4;16
009557;01.11.2021;09:53:35;Stop          ;04.12.2018;FEY;;LION;49;14500;7200;128;2;53;53;8400;3000;3763;3717;1;12611;24.34;28.94;27,1;BCS1388054;4;16
009557;01.11.2021;10:02:14;Normalcharge  ;04.12.2018;FEY;;LION;49;14500;7200;192;2;53;53;8400;3000;3677;3677;1;13012;24.64;27.74;29,5;BCS1388054;4;16
009557;01.11.2021;10:03:16;Stop          ;04.12.2018;FEY;;LION;49;14500;7200;128;2;53;53;8400;3000;3763;3717;1;12580;24.74;30.04;29,3;BCS1388054;4;16
009557;01.11.2021;10:18:21;Normalcharge  ;04.12.2018;FEY;;LION;49;14500;7200;192;2;53;53;8400;3000;3678;3679;1;13013;25.14;27.34;28,4;BCS1388054;4;16
009557;01.11.2021;10:19:03;Stop          ;04.12.2018;FEY;;LION;49;14500;7200;128;2;53;53;8400;3000;3755;3711;1;12569;25.24;28.94;28,2;BCS1388054;4;16
009557;01.11.2021;10:28:22;Normalcharge  ;04.12.2018;FEY;;LION;49;14500;7200;192;2;53;53;8400;3000;3679;3679;1;13012;25.44;27.54;27,9;BCS1388054;4;16
009557;01.11.2021;10:29:09;Stop          ;04.12.2018;FEY;;LION;49;14500;7200;128;2;53;53;8400;3000;3763;3715;1;12565;25.44;29.44;28,5;BCS1388054;4;16
009557;01.11.2021;10:32:29;Charge to 60% ;04.12.2018;FEY;;LION;49;14500;7200;192;2;53;53;8400;3000;3680;3681;1;13014;25.54;27.94;29,7;BCS1388054;4;16
009557;01.11.2021;15:19:33;Stop          ;04.12.2018;FEY;;LION;49;14500;7200;192;2;59;60;8400;3000;3769;3768;1;13012;28.84;30.54;32,7;BCS1388054;4;16
009557;07.02.2022;08:50:52;Normalcharge  ;04.12.2018;FEY;;LION;49;14500;7200;192;2;57;57;8400;3000;3710;3710;1;13010;22.34;22.34;25,0;BCS1388054;5;12
009557;07.02.2022;13:22:36;Stop          ;04.12.2018;FEY;;LION;49;14500;7200;224;2;100;100;8400;;4162;4161;1;13004;26.44;25.64;28,5;BCS1388054;5;12

File: 009582.txt
Serialnumber ; Date ; Time ; Action ; Date of Manufacture ; Manufacturer ; Battery Name ; Device-Chemistry ; Specification-Info ; Design-Capacity [mAh] ; Design-Voltage [mV] ; Battery Status ; Cycle Count ; SOC [%] ; Relativ SOC[%] ; Desired Voltage [mV]; Desired Current [mA]; Cell Voltage 1 [mV] ; Cell Voltage 2 [mV] ; Max_Error [%] ; Busvoltage[mV] ; Battery Temperature [°C] ; Charger Temperature [°C] ; Batterysystem ; Case ; PLace
009582;25.08.2021;08:13:04;Normalcharge  ;04.12.2018;FEY;;LION;49;14500;7200;2768;2;;;8400;3000;2831;2897;1;13023;30.24;30.84;32,4;BCS1388054;7;16
009582;25.08.2021;08:13:16;Stop          ;04.12.2018;FEY;;LION;49;14500;7200;2768;2;;;8400;3000;2831;2897;1;13012;30.24;31.04;32,5;BCS1388054;7;16
009582;25.08.2021;08:14:41;Charge to 60% ;04.12.2018;FEY;;LION;49;14500;7200;2768;2;;;8400;3000;2835;2899;1;13022;30.24;31.14;33,0;BCS1388054;7;16
009582;25.08.2021;08:37:46;Stop          ;04.12.2018;FEY;;LION;49;14500;7200;144;2;2;2;8400;3000;3452;3408;1;12727;31.54;37.94;36,1;BCS1388054;7;16
009582;25.08.2021;08:38:03;Charge to 60% ;04.12.2018;FEY;;LION;49;14500;7200;144;2;2;2;8400;3000;3354;3362;1;13022;31.64;37.24;36,1;BCS1388054;7;16
009582;25.08.2021;13:26:36;Stop          ;04.12.2018;FEY;;LION;49;14500;7200;192;2;57;60;8400;3000;3795;3795;1;13021;33.94;33.14;36,4;BCS1388054;7;16
009582;01.11.2021;10:18:11;Normalcharge  ;04.12.2018;FEY;;LION;49;14500;7200;192;2;52;53;8400;3000;3690;3689;1;12995;23.44;28.04;28,4;BCS1388054;2;10
009582;01.11.2021;10:18:48;Stop          ;04.12.2018;FEY;;LION;49;14500;7200;128;2;52;53;8400;3000;3753;3717;1;12607;23.44;29.24;28,2;BCS1388054;2;10
009582;01.11.2021;10:28:53;Normalcharge  ;04.12.2018;FEY;;LION;49;14500;7200;192;2;52;53;8400;3000;3690;3690;1;12995;24.24;28.24;28,2;BCS1388054;2;10
009582;01.11.2021;10:29:00;Stop          ;04.12.2018;FEY;;LION;49;14500;7200;192;2;52;53;8400;3000;3691;3690;1;12983;24.24;28.34;28,4;BCS1388054;2;10
009582;01.11.2021;11:53:39;Stop          ;04.12.2018;FEY;;LION;49;14500;7200;192;2;58;60;8400;3000;3781;3781;1;12995;28.14;30.44;32,5;BCS1388054;2;10
009582;09.02.2022;08:16:46;Normalcharge  ;04.12.2018;FEY;;LION;49;14500;7200;192;2;56;57;8400;3000;3723;3723;1;13011;22.24;23.34;23,1;BCS1388054;3;13
009582;09.02.2022;12:49:54;Stop           ;04.12.2018;FEY;;LION;49;14500;7200;224;2;98;100;8400;;4160;4159;1;13005;26.04;28.14;29,9;BCS1388054;3;13

File: 009592.txt
Serialnumber ; Date ; Time ; Action ; Date of Manufacture ; Manufacturer ; Battery Name ; Device-Chemistry ; Specification-Info ; Design-Capacity [mAh] ; Design-Voltage [mV] ; Battery Status ; Cycle Count ; SOC [%] ; Relativ SOC[%] ; Desired Voltage [mV]; Desired Current [mA]; Cell Voltage 1 [mV] ; Cell Voltage 2 [mV] ; Max_Error [%] ; Busvoltage[mV] ; Battery Temperature [°C] ; Charger Temperature [°C] ; Batterysystem ; Case ; PLace
009592;07.12.2020;04:14:21;Cycle         ;04.12.2018;FEY;;LION;49;14500;7200;224;3;97;99;8400;;4155;4155;1;12998;26.04;28.34;30,3;BCS1388054;2;10
009592;08.12.2020;16:19:44;Stop          ;04.12.2018;FEY;;LION;49;14500;7200;224;5;97;100;8400;;4151;4151;1;12998;28.14;29.74;31,9;BCS1388054;2;10
009592;03.03.2021;08:17:08;Normalcharge  ;04.12.2018;FEY;;LION;49;14500;7200;192;5;95;97;8400;;4111;4111;1;13000;23.44;22.84;23,5;BCS1388054;1;11
009592;04.03.2021;07:53:51;Stop          ;04.12.2018;FEY;;LION;49;14500;7200;192;5;95;97;8400;;4111;4110;1;12992;26.34;26.44;31,6;BCS1388054;1;11
009592;04.04.2021;11:50:22;Normalcharge  ;04.12.2018;FEY;;LION;49;14500;7200;192;5;50;51;8400;3000;3661;3661;1;12994;25.14;27.14;27,9;BCS1388054;4;2
009592;04.04.2021;11:51:36;Stop          ;04.12.2018;FEY;;LION;49;14500;7200;128;5;50;52;8400;3000;3745;3699;1;12716;25.24;29.94;28,6;BCS1388054;4;2
009592;05.04.2021;09:38:17;Charge to 60% ;04.12.2018;FEY;;LION;49;14500;7200;192;5;50;52;8400;3000;3662;3662;1;13015;25.34;26.74;26,4;BCS1388054;5;5
009592;05.04.2021;10:34:50;Charge to 60% ;04.12.2018;FEY;;LION;49;14500;7200;192;5;58;60;8400;3000;3742;3742;1;12919;28.04;29.64;32,4;BCS1388054;5;5
009592;05.04.2021;13:16:09;Stop          ;04.12.2018;FEY;;LION;49;14500;7200;192;5;58;60;8400;3000;3740;3740;1;13011;27.84;29.64;32,2;BCS1388054;5;5
009592;22.08.2021;11:07:50;Normalcharge  ;04.12.2018;FEY;;LION;49;14500;7200;192;5;41;42;8400;3000;3604;3604;1;12996;22.64;29.94;32,0;BCS1388054;1;7
009592;22.08.2021;11:08:23;Stop          ;04.12.2018;FEY;;LION;49;14500;7200;128;5;41;42;8400;3000;3663;3630;1;12620;22.84;31.04;32,4;BCS1388054;1;7
009592;25.08.2021;08:14:57;Charge to 60% ;04.12.2018;FEY;;LION;49;14500;7200;192;5;41;42;8400;3000;3606;3607;1;12993;30.64;30.64;33,2;BCS1388054;6;12
009592;25.08.2021;09:50:39;Stop          ;04.12.2018;FEY;;LION;49;14500;7200;192;5;58;60;8400;3000;3742;3741;1;12990;34.14;32.74;36,4;BCS1388054;6;12
009592;01.11.2021;09:52:11;Normalcharge  ;04.12.2018;FEY;;LION;49;14500;7200;192;6;51;52;8400;3000;3666;3666;1;13004;24.84;24.84;26,4;BCS1388054;3;18
009592;01.11.2021;09:53:27;Stop           ;04.12.2018;FEY;;LION;49;14500;7200;128;6;51;52;8400;3000;3756;3707;1;12585;24.84;28.24;27,1;BCS1388054;3;18
009592;01.11.2021;10:02:09;Normalcharge  ;04.12.2018;FEY;;LION;49;14500;7200;192;6;51;52;8400;3000;3668;3668;1;13000;25.44;26.64;29,5;BCS1388054;3;18
009592;01.11.2021;10:03:20;Stop           ;04.12.2018;FEY;;LION;49;14500;7200;128;6;51;52;8400;3000;3757;3710;1;12585;25.54;29.64;29,5;BCS1388054;3;18
009592;01.11.2021;10:18:16;Normalcharge  ;04.12.2018;FEY;;LION;49;14500;7200;192;6;51;52;8400;3000;3670;3670;1;13001;25.84;26.44;28,2;BCS1388054;3;18
009592;01.11.2021;10:18:56;Stop           ;04.12.2018;FEY;;LION;49;14500;7200;128;6;51;52;8400;3000;3745;3703;1;12589;25.94;28.14;28,2;BCS1388054;3;18
009592;01.11.2021;10:27:50;Normalcharge  ;04.12.2018;FEY;;LION;49;14500;7200;192;6;51;52;8400;3000;3671;3671;1;13001;26.04;26.64;27,8;BCS1388054;3;18
009592;01.11.2021;10:29:05;Stop           ;04.12.2018;FEY;;LION;49;14500;7200;128;6;51;53;8400;3000;3760;3711;1;12552;26.14;29.84;28,5;BCS1388054;3;18
009592;01.11.2021;10:32:24;Ladung auf 60% ;04.12.2018;FEY;;LION;49;14500;7200;192;6;51;53;8400;3000;3673;3673;1;13001;26.24;27.44;29,7;BCS1388054;3;18
009592;01.11.2021;15:19:46;Stop           ;04.12.2018;FEY;;LION;49;14500;7200;192;6;58;60;8400;3000;3742;3741;1;12999;28.94;29.64;32,7;BCS1388054;3;18
009592;09.02.2022;08:16:56;Normalcharge  ;04.12.2018;FEY;;LION;49;14500;7200;192;6;54;56;8400;3000;3703;3703;1;13010;22.74;23.24;23,1;BCS1388054;2;4
009592;09.02.2022;12:43:52;Stop          ;04.12.2018;FEY;;LION;49;14500;7200;224;6;98;100;8400;;4163;4162;1;13003;26.44;27.54;29,9;BCS1388054;2;4