Folder: Battery_sort_V2/reader/backup_20220214/Batterieverzeichnis (part 2)

File: 009533.txt
Serialnumber ; Date ; Time ; Action ; Date of Manufacture ; Manufacturer ; Battery Name ; Device-Chemistry ; Specification-Info ; Design-Capacity [mAh] ; Design-Voltage [mV] ; Battery Status ; Cycle Count ; SOC [%] ; Relativ SOC[%] ; Desired Voltage [mV]; Desired Current [mA]; Cell Voltage 1 [mV] ; Cell Voltage 2 [mV] ; Max_Error [%] ; Busvoltage[mV] ; Battery Temperature [°C] ; Charger Temperature [°C] ; Batterysystem ; Case ; PLace
009533;10.12.2019;15:28:54;Charge to 30% ;04.12.2018;FEY;;LION;49;14500;7200;224;54;92;99;8400;;4127;4126;1;13015;22.84;24.34;27,1;BCS1388054;4;6
009533;10.12.2019;20:47:57;Stop          ;04.12.2018;FEY;;LION;49;14500;7200;192;55;28;30;8400;3000;3560;3559;1;13013;32.94;31.14;33,4;BCS1388054;4;6
009533;11.12.2019;08:48:41;Fastcharge    ;04.12.2018;FEY;;LION;49;14500;7200;192;55;28;30;8400;3000;3567;3566;1;13015;26.44;27.34;31,9;BCS1388054;4;6
009533;11.12.2019;13:42:44;Stop          ;04.12.2018;FEY;;LION;49;14500;7200;224;55;94;100;8400;;4158;4158;1;13015;29.24;28.34;31,9;BCS1388054;4;6
009533;11.12.2019;15:46:31;Charge to 10% ;04.12.2018;FEY;;LION;49;14500;7200;224;55;95;100;8400;;4151;4151;1;13014;27.14;27.24;31,4;BCS1388054;4;6
009533;11.12.2019;22:50:44;Stop          ;04.12.2018;FEY;;LION;49;14500;7200;192;56;10;10;8400;3000;3354;3354;1;13014;33.34;31.24;33,2;BCS1388054;4;6
009533;12.12.2019;08:45:03;Normalcharge  ;04.12.2018;FEY;;LION;49;14500;7200;192;56;9;10;8400;3000;3363;3363;1;13014;26.64;27.14;31,9;BCS1388054;4;6
009533;12.12.2019;16:41:48;Stop          ;04.12.2018;FEY;;LION;49;14500;7200;224;56;95;100;8400;;4158;4158;1;13015;28.74;28.14;31,5;BCS1388054;4;6
009533;13.12.2019;10:48:01;Charge to 10% ;04.12.2018;FEY;;LION;49;14500;7200;224;56;95;100;8400;;4146;4146;1;13015;26.64;27.54;32,0;BCS1388054;4;6
009533;13.12.2019;15:42:25;Stop          ;04.12.2018;FEY;;LION;49;14500;7200;192;57;34;36;8400;3000;3496;3547;1;13515;32.34;33.94;34,6;BCS1388054;4;6
009533;13.12.2019;15:42:27;Cycle         ;04.12.2018;FEY;;LION;49;14500;7200;192;57;34;36;8400;3000;3496;3546;1;13013;32.34;33.84;34,6;BCS1388054;4;6
009533;14.12.2019;22:44:28;Stop          ;04.12.2018;FEY;;LION;49;14500;7200;224;58;93;100;8400;;4150;4148;1;13015;26.64;27.44;32,0;BCS1388054;4;6
009533;16.12.2019;07:43:14;Charge to 10% ;04.12.2018;FEY;;LION;49;14500;7200;224;58;92;100;8400;;4144;4143;1;13014;26.44;26.54;31,9;BCS1388054;4;6
009533;16.12.2019;14:36:44;Stop          ;04.12.2018;FEY;;LION;49;14500;7200;192;59;10;10;8400;3000;3363;3363;1;13014;31.84;29.94;32,4;BCS1388054;4;6
009533;16.12.2019;14:44:13;Charge to 90% ;04.12.2018;FEY;;LION;49;14500;7200;192;59;10;10;8400;3000;3364;3364;1;13014;31.34;29.14;31,7;BCS1388054;4;6
009533;16.12.2019;20:50:27;Stop          ;04.12.2018;FEY;;LION;49;14500;7200;192;59;84;90;8400;3000;4054;4054;1;13015;30.94;29.24;31,6;BCS1388054;4;6
009533;17.12.2019;08:37:49;Fastcharge    ;04.12.2018;FEY;;LION;49;14500;7200;192;59;84;90;8400;3000;4045;4045;1;13015;26.44;27.24;31,6;BCS1388054;4;6
009533;17.12.2019;10:31:06;Stop          ;04.12.2018;FEY;;LION;49;14500;7200;224;59;94;100;8400;;4162;4162;1;13015;27.94;27.64;31,4;BCS1388054;4;6
009533;17.12.2019;13:38:32;Charge to 10% ;04.12.2018;FEY;;LION;49;14500;7200;224;59;94;100;8400;;4149;4148;1;13015;26.74;27.14;30,8;BCS1388054;4;6
009533;17.12.2019;20:34:29;Stop          ;04.12.2018;FEY;;LION;49;14500;7200;192;60;10;10;8400;3000;3361;3362;1;13013;33.44;31.54;34,1;BCS1388054;4;6
009533;18.12.2019;08:31:26;Fastcharge    ;04.12.2018;FEY;;LION;49;14500;7200;192;60;10;10;8400;3000;3371;3371;1;13015;26.64;27.04;31,6;BCS1388054;4;6
009533;18.12.2019;14:29:12;Stop          ;04.12.2018;FEY;;LION;49;14500;7200;224;60;94;100;8400;;4160;4161;1;13015;29.34;28.54;31,9;BCS1388054;4;6
009533;19.12.2019;08:23:58;Charge to 60% ;04.12.2018;FEY;;LION;49;14500;7200;224;60;95;100;8400;;4147;4147;1;13015;26.54;27.24;31,6;BCS1388054;4;6
009533;19.12.2019;11:30:18;Stop          ;04.12.2018;FEY;;LION;49;14500;7200;192;61;57;60;8400;3000;3764;3765;1;13014;33.64;32.04;34,6;BCS1388054;4;6
009533;19.12.2019;12:16:45;Cycle         ;04.12.2018;FEY;;LION;49;14500;7200;192;61;57;60;8400;3000;3773;3774;1;13014;29.84;28.94;32,7;BCS1388054;4;6
009533;20.12.2019;17:30:48;Stop          ;04.12.2018;FEY;;LION;49;14500;7200;224;62;93;100;8400;;4151;4153;1;13014;26.74;26.94;30,6;BCS1388054;4;6
009533;06.01.2020;06:34:50;Charge to 60% ;04.12.2018;FEY;;LION;49;14500;7200;224;62;92;99;8400;;4121;4122;1;13015;26.74;27.34;31,9;BCS1388054;4;6
009533;06.01.2020;09:30:33;Stop          ;04.12.2018;FEY;;LION;49;14500;7200;192;63;56;60;8400;3000;3767;3770;1;13014;32.84;31.24;33,7;BCS1388054;4;6
009533;06.01.2020;09:50:38;Fastcharge    ;04.12.2018;FEY;;LION;49;14500;7200;192;63;56;60;8400;3000;3774;3777;1;13015;31.14;29.84;32,7;BCS1388054;4;6
009533;06.01.2020;13:09:19;Stop          ;04.12.2018;FEY;;LION;49;14500;7200;224;63;93;100;8400;;4157;4158;1;13017;28.94;27.94;31,4;BCS1388054;4;6

File: 009539.txt
Serialnumber ; Date ; Time ; Action ; Date of Manufacture ; Manufacturer ; Battery Name ; Device-Chemistry ; Specification-Info ; Design-Capacity [mAh] ; Design-Voltage [mV] ; Battery Status ; Cycle Count ; SOC [%] ; Relativ SOC[%] ; Desired Voltage [mV]; Desired Current [mA]; Cell Voltage 1 [mV] ; Cell Voltage 2 [mV] ; Max_Error [%] ; Busvoltage[mV] ; Battery Temperature [°C] ; Charger Temperature [°C] ; Batterysystem ; Case ; PLace
009539;10.12.2019;15:28:47;Ladung auf 30% ;04.12.2018;FEY;;LION;49;14500;7200;224;47;93;100;8400;;4131;4131;1;13005;22.54;24.24;27,1;BCS1388054;3;7
009539;10.12.2019;20:47:21;Stop           ;04.12.2018;FEY;;LION;49;14500;7200;192;48;29;30;8400;3000;3557;3557;1;13005;34.14;34.64;33,5;BCS1388054;3;7
009539;11.12.2019;08:48:36;Fastcharge    ;04.12.2018;FEY;;LION;49;14500;7200;192;48;29;31;8400;3000;3566;3566;1;13004;26.34;27.94;31,9;BCS1388054;3;7
009539;11.12.2019;13:39:41;Stop           ;04.12.2018;FEY;;LION;49;14500;7200;224;48;95;100;8400;;4161;4162;1;13005;30.74;31.04;32,5;BCS1388054;3;7
009539;11.12.2019;15:46:24;Ladung auf 10% ;04.12.2018;FEY;;LION;49;14500;7200;224;48;96;100;8400;;4153;4153;1;13004;27.34;28.54;31,4;BCS1388054;3;7
009539;11.12.2019;22:48:44;Stop           ;04.12.2018;FEY;;LION;49;14500;7200;192;49;10;10;8400;3000;3352;3353;1;13006;34.94;34.84;33,6;BCS1388054;3;7
009539;12.12.2019;08:44:58;Normalcharge  ;04.12.2018;FEY;;LION;49;14500;7200;192;49;9;10;8400;3000;3362;3362;1;13003;26.54;28.24;31,9;BCS1388054;3;7
009539;12.12.2019;16:39:24;Stop           ;04.12.2018;FEY;;LION;49;14500;7200;224;49;96;100;8400;;4159;4160;1;13005;29.74;30.44;31,7;BCS1388054;3;7
009539;13.12.2019;10:47:57;Ladung auf 10% ;04.12.2018;FEY;;LION;49;14500;7200;224;49;96;100;8400;;4149;4148;1;13004;26.54;28.14;32,0;BCS1388054;3;7
009539;13.12.2019;15:42:18;Stop           ;04.12.2018;FEY;;LION;49;14500;7200;192;50;35;36;8400;3000;3499;3550;1;13542;33.44;39.34;34,6;BCS1388054;3;7
009539;13.12.2019;15:42:20;Cycle          ;04.12.2018;FEY;;LION;49;14500;7200;192;50;35;36;8400;3000;3499;3550;1;13542;33.44;39.24;34,6;BCS1388054;3;7
009539;14.12.2019;22:36:33;Stop           ;04.12.2018;FEY;;LION;49;14500;7200;224;51;93;100;8400;;4153;4152;1;13005;26.74;28.14;31,6;BCS1388054;3;7
009539;16.12.2019;07:43:10;Ladung auf 10% ;04.12.2018;FEY;;LION;49;14500;7200;224;51;92;100;8400;;4147;4146;1;13005;26.34;27.64;31,9;BCS1388054;3;7
009539;16.12.2019;14:34:27;Stop           ;04.12.2018;FEY;;LION;49;14500;7200;192;52;10;10;8400;3000;3366;3366;1;13006;33.24;33.64;32,5;BCS1388054;3;7
009539;16.12.2019;14:44:07;Ladung auf 90% ;04.12.2018;FEY;;LION;49;14500;7200;192;52;10;10;8400;3000;3368;3368;1;13005;32.54;31.84;31,7;BCS1388054;3;7
009539;16.12.2019;20:48:39;Stop           ;04.12.2018;FEY;;LION;49;14500;7200;192;52;84;90;8400;3000;4059;4059;1;13007;32.44;32.84;31,9;BCS1388054;3;7
009539;17.12.2019;08:37:44;Fastcharge    ;04.12.2018;FEY;;LION;49;14500;7200;192;52;85;90;8400;3000;4048;4048;1;13005;26.34;27.84;31,5;BCS1388054;3;7
009539;17.12.2019;10:30:44;Stop           ;04.12.2018;FEY;;LION;49;14500;7200;224;52;95;100;8400;;4160;4160;1;13005;28.34;29.74;31,4;BCS1388054;3;7
009539;17.12.2019;13:38:28;Ladung auf 10% ;04.12.2018;FEY;;LION;49;14500;7200;224;52;95;100;8400;;4150;4150;1;13005;26.74;28.04;30,8;BCS1388054;3;7
009539;17.12.2019;20:32:04;Stop           ;04.12.2018;FEY;;LION;49;14500;7200;192;53;10;10;8400;3000;3363;3363;1;13005;34.94;35.14;34,6;BCS1388054;3;7
009539;18.12.2019;08:31:22;Fastcharge    ;04.12.2018;FEY;;LION;49;14500;7200;192;53;10;10;8400;3000;3372;3373;1;13005;26.44;28.14;31,6;BCS1388054;3;7
009539;18.12.2019;14:26:33;Stop           ;04.12.2018;FEY;;LION;49;14500;7200;224;53;95;100;8400;;4161;4161;1;13007;30.84;31.04;32,5;BCS1388054;3;7
009539;19.12.2019;08:23:54;Ladung auf 60% ;04.12.2018;FEY;;LION;49;14500;7200;224;53;96;100;8400;;4149;4150;1;13006;26.44;27.94;31,6;BCS1388054;3;7
009539;19.12.2019;11:28:29;Stop           ;04.12.2018;FEY;;LION;49;14500;7200;192;54;58;60;8400;3000;3753;3754;1;13006;34.64;38.34;35,1;BCS1388054;3;7
009539;19.12.2019;12:16:41;Cycle          ;04.12.2018;FEY;;LION;49;14500;7200;192;54;58;60;8400;3000;3770;3772;1;13005;31.14;30.74;32,7;BCS1388054;3;7
009539;20.12.2019;17:23:28;Stop           ;04.12.2018;FEY;;LION;49;14500;7200;224;55;93;100;8400;;4153;4153;1;13005;26.94;28.24;31,9;BCS1388054;3;7
009539;06.01.2020;06:34:46;Ladung auf 60% ;04.12.2018;FEY;;LION;49;14500;7200;192;55;92;99;8400;;4123;4122;1;13005;26.54;28.04;31,9;BCS1388054;3;7
009539;06.01.2020;09:29:20;Stop           ;04.12.2018;FEY;;LION;49;14500;7200;192;56;57;60;8400;3000;3752;3753;1;13007;33.84;37.14;34,2;BCS1388054;3;7
009539;06.01.2020;09:50:34;Fastcharge    ;04.12.2018;FEY;;LION;49;14500;7200;192;56;57;60;8400;3000;3768;3770;1;13006;32.34;31.44;32,7;BCS1388054;3;7
009539;06.01.2020;13:06:26;Stop           ;04.12.2018;FEY;;LION;49;14500;7200;224;56;94;100;8400;;4162;4162;1;13006;30.34;30.94;32,1;BCS1388054;3;7

File: 009544.txt
Serialnumber ; Date ; Time ; Action ; Date of Manufacture ; Manufacturer ; Battery Name ; Device-Chemistry ; Specification-Info ; Design-Capacity [mAh] ; Design-Voltage [mV] ; Battery Status ; Cycle Count ; SOC [%] ; Relativ SOC[%] ; Desired Voltage [mV]; Desired Current [mA]; Cell Voltage 1 [mV] ; Cell Voltage 2 [mV] ; Max_Error [%] ; Busvoltage[mV] ; Battery Temperature [°C] ; Charger Temperature [°C] ; Batterysystem ; Case ; PLace
009544;07.02.2021;08:46:42;Normalcharge  ;04.12.2018;FEY;;LION;49;14500;7200;192;5;97;98;8400;;4120;4121;1;13004;23.24;27.04;29,2;BCS1388054;1;3
009544;07.02.2021;11:52:07;Stop          ;04.12.2018;FEY;;LION;49;14500;7200;192;5;97;98;8400;;4121;4121;1;13003;25.44;28.04;29,7;BCS1388054;1;3
009544;03.03.2021;08:17:21;Normalcharge  ;04.12.2018;FEY;;LION;49;14500;7200;192;5;92;93;8400;3000;4071;4071;1;13006;22.94;22.34;23,5;BCS1388054;3;11
009544;04.03.2021;07:53:40;Stop           ;04.12.2018;FEY;;LION;49;14500;7200;224;5;99;100;8400;;4147;4147;1;13001;26.14;26.14;31,5;BCS1388054;3;11
009544;04.04.2021;11:50:10;Normalcharge  ;04.12.2018;FEY;;LION;49;14500;7200;192;6;53;54;8400;3000;3686;3686;1;13006;24.64;25.34;27,8;BCS1388054;5;10
009544;04.04.2021;11:51:30;Stop          ;04.12.2018;FEY;;LION;49;14500;7200;128;6;53;54;8400;3000;3775;3728;1;12664;24.64;28.34;28,5;BCS1388054;5;10
009544;05.04.2021;09:37:46;Charge to 60% ;04.12.2018;FEY;;LION;49;14500;7200;192;6;53;54;8400;3000;3688;3688;1;13005;24.74;26.94;26,1;BCS1388054;2;10
009544;05.04.2021;10:03:48;Stop          ;04.12.2018;FEY;;LION;49;14500;7200;128;6;58;60;8400;3000;3766;3770;1;13001;26.94;32.54;31,4;BCS1388054;2;10
009544;22.08.2021;11:07:55;Normalcharge  ;04.12.2018;FEY;;LION;49;14500;7200;192;6;44;45;8400;3000;3618;3619;1;12991;22.04;29.54;32,0;BCS1388054;2;11
009544;22.08.2021;11:08:28;Stop          ;04.12.2018;FEY;;LION;49;14500;7200;128;6;44;45;8400;3000;3689;3650;1;12580;22.14;30.54;32,4;BCS1388054;2;11
009544;25.08.2021;08:14:57;Charge to 60% ;04.12.2018;FEY;;LION;49;14500;7200;192;6;44;45;8400;3000;3620;3621;1;12982;30.14;32.74;33,2;BCS1388054;6;13
009544;25.08.2021;09:50:39;Stop          ;04.12.2018;FEY;;LION;49;14500;7200;192;6;58;60;8400;3000;3736;3736;1;12982;34.24;36.54;36,4;BCS1388054;6;13
009544;01.11.2021;10:18:21;Normalcharge  ;04.12.2018;FEY;;LION;49;14500;7200;192;6;55;56;8400;3000;3705;3705;1;12999;25.44;26.64;28,4;BCS1388054;4;6
009544;01.11.2021;10:19:03;Stop          ;04.12.2018;FEY;;LION;49;14500;7200;128;6;55;56;8400;3000;3781;3739;1;12575;25.54;28.04;28,2;BCS1388054;4;6
009544;01.11.2021;10:28:22;Normalcharge  ;04.12.2018;FEY;;LION;49;14500;7200;192;6;55;56;8400;3000;3706;3706;1;13000;25.64;26.94;27,9;BCS1388054;4;6
009544;01.11.2021;10:29:09;Stop          ;04.12.2018;FEY;;LION;49;14500;7200;128;6;55;56;8400;3000;3789;3745;1;12567;25.64;28.64;28,5;BCS1388054;4;6
009544;01.11.2021;10:32:29;Charge to 60% ;04.12.2018;FEY;;LION;49;14500;7200;192;6;55;56;8400;3000;3707;3708;1;12999;25.74;27.44;29,7;BCS1388054;4;6
009544;01.11.2021;15:19:33;Stop          ;04.12.2018;FEY;;LION;49;14500;7200;192;6;58;60;8400;3000;3750;3751;1;12998;28.04;28.74;32,7;BCS1388054;4;6
009544;07.02.2022;08:51:04;Normalcharge  ;04.12.2018;FEY;;LION;49;14500;7200;192;6;55;56;8400;3000;3710;3711;1;13011;22.04;23.64;25,1;BCS1388054;3;13

File: 009595.txt
Serialnumber ; Date ; Time ; Action ; Date of Manufacture ; Manufacturer ; Battery Name ; Device-Chemistry ; Specification-Info ; Design-Capacity [mAh] ; Design-Voltage [mV] ; Battery Status ; Cycle Count ; SOC [%] ; Relativ SOC[%] ; Desired Voltage [mV]; Desired Current [mA]; Cell Voltage 1 [mV] ; Cell Voltage 2 [mV] ; Max_Error [%] ; Busvoltage[mV] ; Battery Temperature [°C] ; Charger Temperature [°C] ; Batterysystem ; Case ; PLace
009595;07.12.2020;04:14:25;Cycle          ;04.12.2018;FEY;;LION;49;14500;7200;192;2;99;98;8400;;4149;4148;1;13000;25.44;27.44;30,3;BCS1388054;3;9
009595;08.12.2020;16:19:50;Stop           ;04.12.2018;FEY;;LION;49;14500;7200;192;2;100;98;8400;;4147;4146;1;12998;27.74;29.04;31,9;BCS1388054;3;9
009595;12.01.2021;04:17:36;Charge to 90% ;04.12.2018;FEY;;LION;49;14500;7200;192;2;98;97;8400;;4130;4129;1;13017;22.94;24.14;23,6;BCS1388054;5;2
009595;12.01.2021;05:15:37;Stop          ;04.12.2018;FEY;;LION;49;14500;7200;192;2;92;90;8400;3000;4066;4066;1;13012;27.04;30.24;31,6;BCS1388054;5;2
009595;12.01.2021;05:21:53;Cycle         ;04.12.2018;FEY;;LION;49;14500;7200;192;2;92;90;8400;3000;4067;4066;1;13011;27.04;29.44;30,6;BCS1388054;5;2
009595;13.01.2021;08:31:10;Stop          ;04.12.2018;FEY;;LION;49;14500;7200;224;3;98;100;8400;;4156;4155;1;13012;26.94;29.44;31,1;BCS1388054;5;2
009595;21.02.2021;13:43:32;Normalcharge  ;04.12.2018;FEY;;LION;49;14500;7200;192;4;40;41;8400;3000;3603;3602;1;12987;23.14;25.64;27,5;BCS1388054;2;7
009595;21.02.2021;19:27:00;Stop          ;04.12.2018;FEY;;LION;49;14500;7200;224;4;98;100;8400;;4163;4164;1;12988;27.34;29.24;31,1;BCS1388054;2;7
009595;04.04.2021;11:50:02;Normalcharge  ;04.12.2018;FEY;;LION;49;14500;7200;192;5;77;78;8400;3000;3912;3913;1;13005;24.74;26.04;27,7;BCS1388054;6;9
009595;04.04.2021;11:51:24;Stop          ;04.12.2018;FEY;;LION;49;14500;7200;128;5;77;78;8400;3000;4005;3956;1;12668;24.84;28.94;28,5;BCS1388054;6;9
009595;22.08.2021;11:37:25;Normalcharge  ;04.12.2018;FEY;;LION;49;14500;7200;192;5;75;76;8400;3000;3861;3862;1;13005;21.34;29.04;31,9;BCS1388054;4;12
009595;22.08.2021;11:38:13;Stop          ;04.12.2018;FEY;;LION;49;14500;7200;128;5;75;76;8400;3000;3951;3903;1;12616;21.64;30.54;32,1;BCS1388054;4;12
009595;14.10.2021;12:40:13;Normalcharge  ;04.12.2018;FEY;;LION;49;14500;7200;192;5;75;76;8400;3000;3850;3851;1;13017;23.34;26.14;27,9;BCS1388054;5;18
009595;14.10.2021;12:41:50;Stop          ;04.12.2018;FEY;;LION;49;14500;7200;128;5;75;76;8400;3000;3946;3898;1;12632;23.54;29.94;28,5;BCS1388054;5;18
009595;07.02.2022;08:51:04;Normalcharge  ;04.12.2018;FEY;;LION;49;14500;7200;192;5;75;76;8400;3000;3823;3823;1;13016;22.14;23.04;25,1;BCS1388054;3;3

File: 009598.txt
Serialnumber ; Date ; Time ; Action ; Date of Manufacture ; Manufacturer ; Battery Name ; Device-Chemistry ; Specification-Info ; Design-Capacity [mAh] ; Design-Voltage [mV] ; Battery Status ; Cycle Count ; SOC [%] ; Relativ SOC[%] ; Desired Voltage [mV]; Desired Current [mA]; Cell Voltage 1 [mV] ; Cell Voltage 2 [mV] ; Max_Error [%] ; Busvoltage[mV] ; Battery Temperature [°C] ; Charger Temperature [°C] ; Batterysystem ; Case ; PLace
009598;07.12.2020;04:14:17;Cycle         ;04.12.2018;FEY;;LION;49;14500;7200;16576;4;99;100;;;4143;4141;1;12995;25.34;26.74;30,3;BCS1388054;1;5
009598;08.12.2020;16:19:38;Stop          ;04.12.2018;FEY;;LION;49;14500;7200;16576;4;99;100;;;4141;4139;1;12995;27.04;27.94;31,9;BCS1388054;1;5
009598;12.01.2021;04:17:40;Charge to 90% ;04.12.2018;FEY;;LION;49;14500;7200;16576;4;98;100;;;4126;4125;1;13015;22.74;24.04;23,6;BCS1388054;6;3
009598;12.01.2021;05:00:55;Stop          ;04.12.2018;FEY;;LION;49;14500;7200;192;4;86;90;8400;3000;4020;4018;1;13009;27.14;33.84;31,2;BCS1388054;6;3
009598;12.01.2021;05:21:57;Cycle         ;04.12.2018;FEY;;LION;49;14500;7200;192;4;86;90;8400;3000;4040;4038;1;13010;26.94;28.84;30,4;BCS1388054;6;3
009598;13.01.2021;08:31:18;Stop          ;04.12.2018;FEY;;LION;49;14500;7200;224;5;96;100;8400;;4155;4155;1;13011;26.54;28.84;31,1;BCS1388054;6;3
009598;21.02.2021;13:45:29;Normalcharge  ;04.12.2018;FEY;;LION;49;14500;7200;192;6;48;50;8400;3000;3665;3665;1;12988;22.44;22.24;27,8;BCS1388054;6;16
009598;06.04.2021;08:38:40;Normalcharge  ;04.12.2018;FEY;;LION;49;14500;7200;224;6;95;99;8400;;4126;4127;1;13011;20.84;25.04;28,1;BCS1388054;1;7
009598;06.04.2021;08:39:29;Stop          ;04.12.2018;FEY;;LION;49;14500;7200;224;6;95;99;8400;;4127;4127;1;13009;20.84;25.44;28,2;BCS1388054;1;7
009598;08.04.2021;07:57:52;Normalcharge  ;04.12.2018;FEY;;LION;49;14500;7200;224;6;95;99;8400;;4126;4126;1;13011;24.94;24.94;26,3;BCS1388054;1;7
009598;08.04.2021;07:59:50;Stop          ;04.12.2018;FEY;;LION;49;14500;7200;224;6;95;99;8400;;4126;4127;1;12958;24.94;25.94;26,8;BCS1388054;1;7
009598;08.04.2021;10:34:35;Normalcharge  ;04.12.2018;FEY;;LION;49;14500;7200;224;6;95;99;8400;;4127;4127;1;13007;26.14;27.64;28,1;BCS1388054;1;7
009598;08.04.2021;10:36:49;Stop          ;04.12.2018;FEY;;LION;49;14500;7200;224;6;95;99;8400;;4127;4127;1;12888;26.14;27.64;28,9;BCS1388054;1;7
009598;18.04.2021;08:33:24;Normalcharge  ;04.12.2018;FEY;;LION;49;14500;7200;224;6;95;99;8400;;4123;4123;1;13010;25.84;26.44;27,7;BCS1388054;1;7
009598;18.04.2021;08:33:29;Stop          ;04.12.2018;FEY;;LION;49;14500;7200;224;6;95;99;8400;;4123;4123;1;13006;25.84;26.44;27,7;BCS1388054;1;7
009598;04.08.2021;07:25:01;Normalcharge  ;04.12.2018;FEY;;LION;49;14500;7200;192;6;92;96;8400;;4091;4091;1;13001;30.24;30.94;31,5;BCS1388054;1;7
009598;04.08.2021;07:25:57;Stop          ;04.12.2018;FEY;;LION;49;14500;7200;192;6;92;96;8400;;4091;4091;1;12794;30.24;31.34;31,9;BCS1388054;1;7
009598;22.08.2021;11:07:51;Normalcharge  ;04.12.2018;FEY;;LION;49;14500;7200;192;6;91;95;8400;3000;4086;4085;1;12994;22.74;31.54;32,0;BCS1388054;1;15
009598;22.08.2021;11:08:24;Stop          ;04.12.2018;FEY;;LION;49;14500;7200;128;6;91;95;8400;3000;4136;4116;1;12585;22.74;32.54;32,4;BCS1388054;1;15
009598;12.10.2021;12:40:28;Normalcharge  ;04.12.2018;FEY;;LION;49;14500;7200;192;6;87;91;8400;3000;4050;4050;1;13033;24.14;26.74;28,8;BCS1388054;7;14
009598;12.10.2021;12:40:39;Stop          ;04.12.2018;FEY;;LION;49;14500;7200;192;6;87;91;8400;3000;4050;4050;1;13025;24.14;26.74;28,9;BCS1388054;7;14
009598;12.10.2021;12:43:08;Normalcharge  ;04.12.2018;FEY;;LION;49;14500;7200;192;6;87;91;8400;3000;4050;4050;1;13032;24.24;26.74;29,2;BCS1388054;7;14
009598;12.10.2021;12:43:28;Stop          ;04.12.2018;FEY;;LION;49;14500;7200;192;6;87;91;8400;3000;4050;4050;1;13025;24.24;27.34;29,2;BCS1388054;7;14
009598;14.10.2021;12:40:08;Normalcharge  ;04.12.2018;FEY;;LION;49;14500;7200;192;6;87;91;8400;3000;4050;4050;1;13004;25.04;26.84;27,9;BCS1388054;4;12
009598;14.10.2021;12:41:44;Stop          ;04.12.2018;FEY;;LION;49;14500;7200;128;6;87;91;8400;3000;4126;4093;1;12654;25.14;28.64;28,4;BCS1388054;4;12

File: 009657.txt
Serialnumber ; Date ; Time ; Action ; Date of Manufacture ; Manufacturer ; Battery Name ; Device-Chemistry ; Specification-Info ; Design-Capacity [mAh] ; Design-Voltage [mV] ; Battery Status ; Cycle Count ; SOC [%] ; Relativ SOC[%] ; Desired Voltage [mV]; Desired Current [mA]; Cell Voltage 1 [mV] ; Cell Voltage 2 [mV] ; Max_Error [%] ; Busvoltage[mV] ; Battery Temperature [°C] ; Charger Temperature [°C] ; Batterysystem ; Case ; PLace
009657;07.12.2020;04:14:21;Cycle         ;04.12.2018;FEY;;LION;49;14500;7200;16576;2;98;99;;;4146;4145;1;13000;25.74;28.04;30,3;BCS1388054;2;4
009657;08.12.2020;16:19:44;Stop          ;04.12.2018;FEY;;LION;49;14500;7200;16576;2;98;99;;;4144;4142;1;13001;27.74;29.44;31,9;BCS1388054;2;4
009657;12.01.2021;04:17:33;Charge to 90% ;04.12.2018;FEY;;LION;49;14500;7200;16576;2;97;97;;;4128;4127;1;13013;23.04;23.34;23,6;BCS1388054;4;13
009657;12.01.2021;04:57:16;Stop          ;04.12.2018;FEY;;LION;49;14500;7200;192;2;90;90;8400;3000;4054;4053;1;13008;27.24;30.14;31,6;BCS1388054;4;13
009657;12.01.2021;05:21:49;Cycle         ;04.12.2018;FEY;;LION;49;14500;7200;192;2;90;90;8400;3000;4059;4058;1;13008;27.34;28.24;30,4;BCS1388054;4;13
009657;13.01.2021;08:19:19;Stop          ;04.12.2018;FEY;;LION;49;14500;7200;224;4;98;100;8400;;4156;4153;1;13008;27.24;28.14;30,7;BCS1388054;4;13
009657;21.02.2021;13:43:32;Normalcharge  ;04.12.2018;FEY;;LION;49;14500;7200;224;4;97;99;8400;;4130;4128;1;12993;23.34;24.64;27,5;BCS1388054;2;13
009657;21.02.2021;19:27:00;Stop          ;04.12.2018;FEY;;LION;49;14500;7200;224;4;97;99;8400;;4131;4128;1;12994;26.94;28.14;31,1;BCS1388054;2;13
009657;06.04.2021;08:39:21;Normalcharge  ;04.12.2018;FEY;;LION;49;14500;7200;192;4;95;98;8400;;4114;4113;1;13029;21.34;24.74;28,1;BCS1388054;7;7
009657;06.04.2021;08:40:08;Stop          ;04.12.2018;FEY;;LION;49;14500;7200;192;4;95;98;8400;;4114;4112;1;12955;21.34;25.04;28,5;BCS1388054;7;7
009657;08.04.2021;07:59:03;Normalcharge  ;04.12.2018;FEY;;LION;49;14500;7200;192;4;95;98;8400;;4114;4112;1;13023;25.14;25.04;26,4;BCS1388054;7;7
009657;08.04.2021;07:59:16;Stop          ;04.12.2018;FEY;;LION;49;14500;7200;192;4;95;98;8400;;4114;4112;1;13019;25.14;25.14;26,6;BCS1388054;7;7
009657;08.04.2021;10:36:43;Normalcharge  ;04.12.2018;FEY;;LION;49;14500;7200;192;4;95;98;8400;;4114;4112;1;13028;25.44;26.14;28,9;BCS1388054;7;7
009657;08.04.2021;10:37:15;Stop          ;04.12.2018;FEY;;LION;49;14500;7200;192;4;95;98;8400;;4114;4112;1;12970;25.44;26.34;29,2;BCS1388054;7;7
009657;18.04.2021;08:34:46;Normalcharge  ;04.12.2018;FEY;;LION;49;14500;7200;192;4;95;97;8400;;4111;4109;1;13027;26.04;26.84;28,2;BCS1388054;7;7
009657;18.04.2021;08:34:54;Stop          ;04.12.2018;FEY;;LION;49;14500;7200;192;4;95;97;8400;;4111;4109;1;13024;26.04;26.94;28,4;BCS1388054;7;7
009657;04.08.2021;07:24:29;Normalcharge  ;04.12.2018;FEY;;LION;49;14500;7200;192;4;95;97;8400;;4082;4080;1;13017;30.04;30.14;31,5;BCS1388054;7;7
009657;04.08.2021;07:25:08;Stop          ;04.12.2018;FEY;;LION;49;14500;7200;192;4;95;97;8400;;4082;4080;1;12969;30.04;30.54;31,6;BCS1388054;7;7
009657;14.10.2021;12:39:51;Normalcharge  ;04.12.2018;FEY;;LION;49;14500;7200;192;4;69;71;8400;3000;3855;3854;1;13002;25.24;26.04;27,9;BCS1388054;1;7
009657;14.10.2021;12:41:14;Stop          ;04.12.2018;FEY;;LION;49;14500;7200;128;4;69;71;8400;3000;3947;3897;1;12485;25.34;29.44;28,2;BCS1388054;1;7
009657;07.02.2022;08:51:51;Normalcharge  ;04.12.2018;FEY;;LION;49;14500;7200;192;4;69;71;8400;3000;3828;3826;1;12993;22.34;23.94;25,6;BCS1388054;1;2
009657;07.02.2022;13:16:30;Stop          ;04.12.2018;FEY;;LION;49;14500;7200;224;4;98;100;8400;;4153;4150;1;12990;25.64;27.84;31,2;BCS1388054;1;2