Folder: Battery_sort_V2/reader/backup_20220214/Batterieverzeichnis

File: 000000.txt
Serialnumber ; Date ; Time ; Action ; Date of Manufacture ; Manufacturer ; Battery Name ; Device-Chemistry ; Specification-Info ; Design-Capacity [mAh] ; Design-Voltage [mV] ; Battery Status ; Cycle Count ; SOC [%] ; Relativ SOC[%] ; Desired Voltage [mV]; Desired Current [mA]; Cell Voltage 1 [mV] ; Cell Voltage 2 [mV] ; Max_Error [%] ; Busvoltage[mV] ; Battery Temperature [°C] ; Charger Temperature [°C] ; Batterysystem ; Case ; PLace
000000;12.01.2021;04:16:00;Charge to 90% ;00.00.1980;FEY;;LION;;14500;7200;192;2;94;96;8400;;;;1;13013;23.34;12.84;23,0;BCS1388054;1;13
000000;08.04.2021;07:58:12;Normalcharge  ;00.00.1980;FEY;;LION;;14500;7200;2768;5;;;8400;3000;;;1;13009;25.14;14.74;26,3;BCS1388054;4;13
000000;01.11.2021;10:31:59;Charge to 60% ;00.00.1980;FEY;;LION;;;;;;;;;;;;;12887;-273.16;-.06;29,7;BCS1388054;2;7
000000;01.11.2021;10:31:59;Charge to 60% ;00.00.1980;FEY;;LION;;;;;;;;;;;;;12986;-273.16;4.74;29,7;BCS1388054;2;8
000000;01.11.2021;10:31:59;Charge to 60% ;00.00.1980;FEY;;LION;;;;;;;;;;;;;13003;26.44;8.04;29,7;BCS1388054;2;9
000000;01.11.2021;10:31:59;Charge to 60% ;00.00.1980;FEY;;LION;;;;;;52;53;;;;;1;12989;24.44;11.74;29,7;BCS1388054;2;10
000000;01.11.2021;10:31:59;Charge to 60% ;00.00.1980;FEY;;LION;;;;;;53;56;;3000;;;1;12991;26.34;13.94;29,7;BCS1388054;2;11
000000;01.11.2021;10:32:00;Charge to 60% ;00.00.1980;FEY;;LION;49;14500;7200;192;6;56;57;8400;3000;;;1;12993;26.24;16.44;29,7;BCS1388054;2;12
000000;01.11.2021;10:32:43;Charge to 60% ;00.00.1980;FEY;;LION;;;;;;;;;;;;;12958;-273.16;1.54;29,7;BCS1388054;6;6
000000;01.11.2021;10:32:43;Charge to 60% ;00.00.1980;FEY;;LION;;;;;;;;;;;;;12984;-273.16;6.24;29,7;BCS1388054;6;7
000000;01.11.2021;10:32:43;Charge to 60% ;00.00.1980;FEY;;LION;;;;;;;;;;;;;12984;26.44;9.74;29,7;BCS1388054;6;8
000000;01.11.2021;10:32:43;Charge to 60% ;00.00.1980;FEY;;LION;;;;;;55;58;;;;;1;12994;26.44;13.04;29,7;BCS1388054;6;9
000000;01.11.2021;10:32:43;Charge to 60% ;00.00.1980;FEY;;LION;;;;192;;55;58;8400;3000;;;1;12985;26.34;15.84;29,7;BCS1388054;6;10
000000;28.12.2021;09:21:48;Charge to 60% ;00.00.1980;FEY;;LION;;;;;;;;;;;;;12995;-273.16;2.74;26,1;BCS1388054;4;12
000000;28.12.2021;09:21:48;Charge to 60% ;00.00.1980;FEY;;LION;;;;;;;;;;;;;13004;-273.16;5.84;26,1;BCS1388054;4;13
000000;28.12.2021;09:21:48;Charge to 60% ;00.00.1980;FEY;;LION;;;;;;;;;;;;1;12999;23.84;8.84;26,1;BCS1388054;4;14
000000;28.12.2021;09:21:48;Charge to 60% ;00.00.1980;FEY;;LION;;;;;;38;40;;;;;1;12998;23.74;11.44;26,1;BCS1388054;4;15
000000;28.12.2021;09:21:48;Charge to 60% ;00.00.1980;FEY;;LION;;14500;;192;4;27;28;8400;3000;;;1;13016;23.94;13.64;26,1;BCS1388054;4;16

File: 001016.txt
Serialnumber ; Date ; Time ; Action ; Date of Manufacture ; Manufacturer ; Battery Name ; Device-Chemistry ; Specification-Info ; Design-Capacity [mAh] ; Design-Voltage [mV] ; Battery Status ; Cycle Count ; SOC [%] ; Relativ SOC[%] ; Desired Voltage [mV]; Desired Current [mA]; Cell Voltage 1 [mV] ; Cell Voltage 2 [mV] ; Max_Error [%] ; Busvoltage[mV] ; Battery Temperature [°C] ; Charger Temperature [°C] ; Batterysystem ; Case ; PLace
001016;13.12.2019;13:53:33;Fastcharge    ;28.11.2017;FEY;;LION;49;14500;7200;192;24;94;99;8400;3000;4110;4110;1;13036;22.04;35.34;35,8;BCS1388054;7;14
001016;13.12.2019;13:55:00;Stop          ;28.11.2017;FEY;;LION;49;14500;7200;128;24;94;99;8400;3000;4160;4143;1;12777;22.44;36.14;36,1;BCS1388054;7;14
001016;13.12.2019;13:55:04;Charge to 10% ;28.11.2017;FEY;;LION;49;14500;7200;128;24;94;99;8400;3000;4159;4143;1;13034;22.44;36.14;36,1;BCS1388054;7;14
001016;13.12.2019;13:55:27;Stop          ;28.11.2017;FEY;;LION;49;14500;7200;192;24;94;99;8400;3000;4116;4119;1;13438;22.64;35.24;36,1;BCS1388054;7;14
001016;13.12.2019;13:55:29;Fastcharge    ;28.11.2017;FEY;;LION;49;14500;7200;192;24;94;99;8400;3000;4063;4089;1;13355;22.64;35.24;36,1;BCS1388054;7;14
001016;13.12.2019;13:55:29;Stop          ;28.11.2017;FEY;;LION;49;14500;7200;192;24;94;99;8400;3000;4063;4089;1;13355;22.64;35.24;36,1;BCS1388054;7;14
001016;13.12.2019;13:55:33;Normalcharge  ;28.11.2017;FEY;;LION;49;14500;7200;192;24;94;99;8400;3000;4063;4089;1;13049;22.64;35.34;36,1;BCS1388054;7;14
001016;13.12.2019;13:55:39;Fastcharge    ;28.11.2017;FEY;;LION;49;14500;7200;192;24;94;99;8400;3000;4112;4112;1;13014;22.64;35.24;36,1;BCS1388054;7;14
001016;13.12.2019;13:55:39;Stop          ;28.11.2017;FEY;;LION;49;14500;7200;192;24;94;99;8400;3000;4112;4112;1;13014;22.64;35.24;36,1;BCS1388054;7;14
001016;13.12.2019;13:56:34;Stop          ;28.11.2017;FEY;;LION;49;14500;7200;128;24;94;99;8400;3000;4160;4143;1;12756;22.84;35.64;36,2;BCS1388054;7;14
001016;13.12.2019;13:56:38;Charge to 95% ;28.11.2017;FEY;;LION;49;14500;7200;128;24;94;99;8400;3000;4155;4141;1;13036;22.84;35.64;36,2;BCS1388054;7;14
001016;13.12.2019;13:56:40;Stop          ;28.11.2017;FEY;;LION;49;14500;7200;128;24;94;99;8400;3000;4155;4141;1;13036;22.84;35.64;36,2;BCS1388054;7;14
001016;13.12.2019;13:56:48;Charge to 90% ;28.11.2017;FEY;;LION;49;14500;7200;128;24;94;99;8400;3000;4117;4120;1;13034;22.94;35.14;36,2;BCS1388054;7;14
001016;13.12.2019;15:42:54;Stop          ;28.11.2017;FEY;;LION;49;14500;7200;192;24;86;90;8400;3000;4027;4028;1;12985;29.34;31.04;34,5;BCS1388054;7;14
001016;13.12.2019;15:42:59;Fastcharge    ;28.11.2017;FEY;;LION;49;14500;7200;192;24;86;90;8400;3000;4027;4028;1;13035;29.34;31.04;34,4;BCS1388054;7;14
001016;13.12.2019;21:04:43;Stop          ;28.11.2017;FEY;;LION;49;14500;7200;224;24;96;100;8400;;4153;4154;1;13038;27.24;28.24;31,7;BCS1388054;7;14

File: 001039.txt
Serialnumber ; Date ; Time ; Action ; Date of Manufacture ; Manufacturer ; Battery Name ; Device-Chemistry ; Specification-Info ; Design-Capacity [mAh] ; Design-Voltage [mV] ; Battery Status ; Cycle Count ; SOC [%] ; Relativ SOC[%] ; Desired Voltage [mV]; Desired Current [mA]; Cell Voltage 1 [mV] ; Cell Voltage 2 [mV] ; Max_Error [%] ; Busvoltage[mV] ; Battery Temperature [°C] ; Charger Temperature [°C] ; Batterysystem ; Case ; PLace
001039;13.12.2019;13:53:33;Fastcharge    ;28.11.2017;FEY;;LION;49;14500;7200;192;16;89;95;8400;3000;4091;4091;1;13032;21.74;35.44;35,8;BCS1388054;7;8
001039;13.12.2019;13:55:00;Stop          ;28.11.2017;FEY;;LION;49;14500;7200;128;16;89;95;8400;3000;4149;4127;1;12773;22.04;35.94;36,1;BCS1388054;7;8
001039;13.12.2019;13:55:04;Charge to 10% ;28.11.2017;FEY;;LION;49;14500;7200;128;16;89;95;8400;3000;4147;4126;1;13031;22.04;35.94;36,1;BCS1388054;7;8
001039;13.12.2019;13:55:27;Stop          ;28.11.2017;FEY;;LION;49;14500;7200;128;16;89;95;8400;3000;4097;4099;1;13402;22.14;34.94;36,1;BCS1388054;7;8
001039;13.12.2019;13:55:29;Fastcharge    ;28.11.2017;FEY;;LION;49;14500;7200;192;16;88;95;8400;3000;4038;4068;1;13460;22.24;35.04;36,1;BCS1388054;7;8
001039;13.12.2019;13:55:29;Stop          ;28.11.2017;FEY;;LION;49;14500;7200;192;16;88;95;8400;3000;4038;4068;1;13460;22.24;35.04;36,1;BCS1388054;7;8
001039;13.12.2019;13:55:33;Normalcharge  ;28.11.2017;FEY;;LION;49;14500;7200;192;16;88;95;8400;3000;4038;4068;1;12985;22.24;35.04;36,1;BCS1388054;7;8
001039;13.12.2019;13:55:39;Fastcharge    ;28.11.2017;FEY;;LION;49;14500;7200;192;16;88;95;8400;3000;4094;4094;1;13016;22.24;35.04;36,1;BCS1388054;7;8
001039;13.12.2019;13:55:39;Stop          ;28.11.2017;FEY;;LION;49;14500;7200;192;16;88;95;8400;3000;4094;4094;1;13016;22.24;35.04;36,1;BCS1388054;7;8
001039;13.12.2019;13:56:34;Stop          ;28.11.2017;FEY;;LION;49;14500;7200;128;16;88;95;8400;3000;4147;4126;1;12756;22.44;35.34;36,2;BCS1388054;7;8
001039;13.12.2019;13:56:38;Charge to 95% ;28.11.2017;FEY;;LION;49;14500;7200;128;16;88;95;8400;3000;4145;4125;1;13032;22.44;35.34;36,2;BCS1388054;7;8
001039;13.12.2019;13:56:40;Stop          ;28.11.2017;FEY;;LION;49;14500;7200;128;16;88;95;8400;3000;4100;4102;1;13031;22.44;35.34;36,2;BCS1388054;7;8
001039;13.12.2019;13:56:48;Charge to 90% ;28.11.2017;FEY;;LION;49;14500;7200;128;16;88;95;8400;3000;4100;4102;1;13032;22.44;35.04;36,2;BCS1388054;7;8
001039;13.12.2019;15:42:54;Stop          ;28.11.2017;FEY;;LION;49;14500;7200;192;16;84;90;8400;3000;4047;4047;1;12982;28.74;31.84;34,5;BCS1388054;7;8
001039;13.12.2019;15:42:59;Fastcharge    ;28.11.2017;FEY;;LION;49;14500;7200;192;16;84;90;8400;3000;4047;4047;1;13032;28.74;31.94;34,4;BCS1388054;7;8
001039;13.12.2019;21:04:43;Stop          ;28.11.2017;FEY;;LION;49;14500;7200;224;16;94;100;8400;;4153;4153;1;13033;26.84;29.14;31,7;BCS1388054;7;8

File: 001078.txt
Serialnumber ; Date ; Time ; Action ; Date of Manufacture ; Manufacturer ; Battery Name ; Device-Chemistry ; Specification-Info ; Design-Capacity [mAh] ; Design-Voltage [mV] ; Battery Status ; Cycle Count ; SOC [%] ; Relativ SOC[%] ; Desired Voltage [mV]; Desired Current [mA]; Cell Voltage 1 [mV] ; Cell Voltage 2 [mV] ; Max_Error [%] ; Busvoltage[mV] ; Battery Temperature [°C] ; Charger Temperature [°C] ; Batterysystem ; Case ; PLace
001078;10.12.2019;15:29:15;Charge to 30% ;15.02.2018;FEY;;LION;49;14500;7200;224;23;93;99;8400;;4123;4123;1;13035;22.84;25.54;27,1;BCS1388054;7;8
001078;10.12.2019;20:46:56;Stop          ;15.02.2018;FEY;;LION;49;14500;7200;192;24;29;30;8400;3000;3558;3559;1;13033;33.44;33.14;33,5;BCS1388054;7;8
001078;11.12.2019;08:49:12;Fastcharge    ;15.02.2018;FEY;;LION;49;14500;7200;192;24;29;30;8400;3000;3568;3568;1;13035;26.44;28.44;31,9;BCS1388054;7;8
001078;11.12.2019;13:38:42;Stop          ;15.02.2018;FEY;;LION;49;14500;7200;224;24;95;100;8400;;4163;4163;1;13034;30.44;30.54;32,7;BCS1388054;7;8
001078;11.12.2019;15:46:56;Charge to 10% ;15.02.2018;FEY;;LION;49;14500;7200;224;24;96;100;8400;;4156;4156;1;13035;27.34;28.64;31,2;BCS1388054;7;8
001078;11.12.2019;22:51:50;Stop          ;15.02.2018;FEY;;LION;49;14500;7200;192;25;10;10;8400;3000;3351;3353;1;13033;34.24;32.94;33,0;BCS1388054;7;8
001078;12.12.2019;08:45:27;Normalcharge  ;15.02.2018;FEY;;LION;49;14500;7200;192;25;9;10;8400;3000;3361;3362;1;13034;26.64;28.54;31,7;BCS1388054;7;8
001078;12.12.2019;16:41:08;Stop          ;15.02.2018;FEY;;LION;49;14500;7200;224;25;96;100;8400;;4162;4162;1;13033;29.54;29.74;31,6;BCS1388054;7;8
001078;13.12.2019;10:48:13;Charge to 10% ;15.02.2018;FEY;;LION;49;14500;7200;224;25;96;100;8400;;4151;4151;1;13033;26.64;28.64;32,0;BCS1388054;7;8
001078;13.12.2019;13:48:48;Stop          ;15.02.2018;FEY;;LION;49;14500;7200;192;25;59;61;8400;3000;3685;3738;1;13533;34.54;40.04;36,8;BCS1388054;7;8
001078;16.12.2019;07:43:27;Charge to 10% ;15.02.2018;FEY;;LION;49;14500;7200;192;25;61;64;8400;3000;3789;3792;1;12993;23.04;26.04;31,7;BCS1388054;6;16
001078;16.12.2019;14:43:10;Stop          ;15.02.2018;FEY;;LION;49;14500;7200;192;26;10;10;8400;3000;3348;3350;1;12993;30.34;30.04;31,7;BCS1388054;6;16
001078;16.12.2019;14:44:21;Charge to 90% ;15.02.2018;FEY;;LION;49;14500;7200;192;26;10;10;8400;3000;3348;3350;1;12993;30.34;29.84;31,9;BCS1388054;6;16
001078;16.12.2019;20:54:26;Stop          ;15.02.2018;FEY;;LION;49;14500;7200;192;26;85;90;8400;3000;4028;4027;1;12994;32.84;30.84;32,1;BCS1388054;6;16
001078;17.12.2019;08:37:58;Fastcharge    ;15.02.2018;FEY;;LION;49;14500;7200;192;26;85;90;8400;3000;4018;4017;1;12993;26.84;26.94;31,6;BCS1388054;6;16
001078;17.12.2019;13:38:40;Charge to 10% ;15.02.2018;FEY;;LION;49;14500;7200;224;26;95;100;8400;;4152;4149;1;12992;27.24;27.04;30,8;BCS1388054;6;16
001078;17.12.2019;20:41:41;Stop          ;15.02.2018;FEY;;LION;49;14500;7200;192;27;10;10;8400;3000;3343;3344;1;12994;34.94;33.54;32,6;BCS1388054;6;16
001078;18.12.2019;08:31:34;Fastcharge    ;15.02.2018;FEY;;LION;49;14500;7200;192;27;9;9;8400;3000;3358;3358;1;12994;26.94;27.04;31,6;BCS1388054;6;16
001078;18.12.2019;14:33:31;Stop          ;15.02.2018;FEY;;LION;49;14500;7200;224;27;94;100;8400;;4162;4159;1;12993;30.94;28.84;31,4;BCS1388054;6;16
001078;19.12.2019;08:24:06;Charge to 60% ;15.02.2018;FEY;;LION;49;14500;7200;224;27;96;100;8400;;4151;4148;1;12992;26.94;27.04;31,5;BCS1388054;6;16
001078;19.12.2019;11:34:24;Stop          ;15.02.2018;FEY;;LION;49;14500;7200;192;28;58;60;8400;3000;3764;3766;1;12993;34.34;32.14;33,5;BCS1388054;6;16
001078;19.12.2019;12:16:53;Cycle         ;15.02.2018;FEY;;LION;49;14500;7200;192;28;58;60;8400;3000;3773;3777;1;12993;31.24;29.14;32,7;BCS1388054;6;16
001078;20.12.2019;17:31:05;Stop          ;15.02.2018;FEY;;LION;49;14500;7200;224;29;94;99;8400;;4153;4152;1;12993;27.34;26.94;30,6;BCS1388054;6;16
001078;06.01.2020;06:34:58;Charge to 60% ;15.02.2018;FEY;;LION;49;14500;7200;192;29;93;98;8400;;4123;4122;1;12994;27.04;27.14;31,9;BCS1388054;6;16
001078;06.01.2020;09:30:42;Stop          ;15.02.2018;FEY;;LION;49;14500;7200;192;29;57;60;8400;3000;3765;3768;1;12994;33.74;32.74;33,7;BCS1388054;6;16
001078;06.01.2020;09:50:46;Fastcharge    ;15.02.2018;FEY;;LION;49;14500;7200;192;29;57;60;8400;3000;3775;3781;1;12994;32.24;29.74;32,7;BCS1388054;6;16
001078;06.01.2020;13:06:22;Stop          ;15.02.2018;FEY;;LION;49;14500;7200;224;29;95;100;8400;;4161;4160;1;12995;30.54;28.94;32,1;BCS1388054;6;16

File: 001080.txt
Serialnumber ; Date ; Time ; Action ; Date of Manufacture ; Manufacturer ; Battery Name ; Device-Chemistry ; Specification-Info ; Design-Capacity [mAh] ; Design-Voltage [mV] ; Battery Status ; Cycle Count ; SOC [%] ; Relativ SOC[%] ; Desired Voltage [mV]; Desired Current [mA]; Cell Voltage 1 [mV] ; Cell Voltage 2 [mV] ; Max_Error [%] ; Busvoltage[mV] ; Battery Temperature [°C] ; Charger Temperature [°C] ; Batterysystem ; Case ; PLace
001080;10.12.2019;15:29:09;Charge to 30% ;15.02.2018;FEY;;LION;49;14500;7200;224;12;93;99;8400;;4124;4124;1;13004;22.74;25.44;27,1;BCS1388054;6;18
001080;10.12.2019;20:46:41;Stop          ;15.02.2018;FEY;;LION;49;14500;7200;192;13;29;30;8400;3000;3558;3558;1;13001;32.14;34.54;33,6;BCS1388054;6;18
001080;11.12.2019;08:49:03;Fastcharge    ;15.02.2018;FEY;;LION;49;14500;7200;192;13;29;30;8400;3000;3568;3568;1;13003;26.24;28.14;31,9;BCS1388054;6;18
001080;11.12.2019;13:39:30;Stop          ;15.02.2018;FEY;;LION;49;14500;7200;224;13;95;100;8400;;4162;4163;1;13002;28.94;30.64;32,5;BCS1388054;6;18
001080;11.12.2019;15:46:47;Charge to 10% ;15.02.2018;FEY;;LION;49;14500;7200;224;13;97;100;8400;;4156;4156;1;13003;26.84;28.54;31,4;BCS1388054;6;18
001080;11.12.2019;22:52:10;Stop          ;15.02.2018;FEY;;LION;49;14500;7200;192;14;10;10;8400;3000;3353;3354;1;13002;32.54;33.94;33,0;BCS1388054;6;18
001080;12.12.2019;08:45:18;Normalcharge  ;15.02.2018;FEY;;LION;49;14500;7200;192;14;9;9;8400;3000;3363;3364;1;13004;26.44;28.34;31,7;BCS1388054;6;18
001080;12.12.2019;16:41:29;Stop          ;15.02.2018;FEY;;LION;49;14500;7200;224;14;96;100;8400;;4162;4162;1;13002;28.44;29.94;31,5;BCS1388054;6;18
001080;13.12.2019;10:48:09;Charge to 10% ;15.02.2018;FEY;;LION;49;14500;7200;224;14;96;100;8400;;4151;4152;1;13002;26.44;28.34;32,0;BCS1388054;6;18
001080;13.12.2019;13:51:54;Stop          ;15.02.2018;FEY;;LION;49;14500;7200;192;15;58;61;8400;3000;3682;3733;1;13502;33.44;42.54;36,1;BCS1388054;6;18
001080;16.12.2019;07:43:34;Charge to 10% ;15.02.2018;FEY;;LION;49;14500;7200;192;15;60;63;8400;3000;3783;3784;1;13032;22.64;27.04;31,7;BCS1388054;7;1
001080;16.12.2019;11:52:34;Stop          ;15.02.2018;FEY;;LION;49;14500;7200;192;15;10;10;8400;3000;3353;3354;1;13031;31.34;32.44;34,7;BCS1388054;7;1
001080;16.12.2019;14:44:25;Charge to 90% ;15.02.2018;FEY;;LION;49;14500;7200;192;15;9;10;8400;3000;3359;3360;1;13031;28.24;29.84;31,7;BCS1388054;7;1
001080;16.12.2019;20:53:58;Stop          ;15.02.2018;FEY;;LION;49;14500;7200;192;15;84;90;8400;3000;4032;4034;1;13032;29.84;30.64;32,1;BCS1388054;7;1
001080;17.12.2019;08:38:01;Fastcharge    ;15.02.2018;FEY;;LION;49;14500;7200;192;15;85;90;8400;3000;4024;4026;1;13032;25.84;28.24;31,6;BCS1388054;7;1
001080;17.12.2019;10:36:25;Stop          ;15.02.2018;FEY;;LION;49;14500;7200;224;15;95;100;8400;;4162;4165;1;13032;27.14;29.24;31,5;BCS1388054;7;1
001080;17.12.2019;13:38:44;Charge to 10% ;15.02.2018;FEY;;LION;49;14500;7200;224;15;95;100;8400;;4154;4157;1;13031;26.14;28.34;30,8;BCS1388054;7;1
001080;17.12.2019;20:42:03;Stop          ;15.02.2018;FEY;;LION;49;14500;7200;192;17;10;10;8400;3000;3351;3354;1;13032;32.04;32.24;32,6;BCS1388054;7;1
001080;18.12.2019;08:31:43;Fastcharge    ;15.02.2018;FEY;;LION;49;14500;7200;192;17;9;9;8400;3000;3362;3365;1;13032;25.94;28.34;31,6;BCS1388054;7;1
001080;18.12.2019;14:30:48;Stop          ;15.02.2018;FEY;;LION;49;14500;7200;224;17;94;100;8400;;4162;4167;1;13032;28.34;29.84;31,6;BCS1388054;7;1
001080;19.12.2019;08:24:17;Charge to 60% ;15.02.2018;FEY;;LION;49;14500;7200;224;17;95;100;8400;;4150;4155;1;13032;25.84;28.24;31,6;BCS1388054;7;1
001080;19.12.2019;11:28:26;Stop          ;15.02.2018;FEY;;LION;49;14500;7200;192;17;58;60;8400;3000;3760;3765;1;13030;32.34;35.44;35,1;BCS1388054;7;1
001080;19.12.2019;12:16:57;Cycle         ;15.02.2018;FEY;;LION;49;14500;7200;192;17;58;60;8400;3000;3779;3785;1;13032;28.64;29.94;32,7;BCS1388054;7;1
001080;20.12.2019;17:22:28;Stop          ;15.02.2018;FEY;;LION;49;14500;7200;224;18;94;100;8400;;4154;4155;1;13032;26.14;28.44;31,9;BCS1388054;7;1
001080;06.01.2020;06:35:02;Charge to 60% ;15.02.2018;FEY;;LION;49;14500;7200;192;18;93;98;8400;;4124;4124;1;13034;26.04;28.24;31,9;BCS1388054;7;1
001080;06.01.2020;09:29:52;Stop          ;15.02.2018;FEY;;LION;49;14500;7200;192;19;57;60;8400;3000;3763;3765;1;13031;31.54;33.74;34,0;BCS1388054;7;1
001080;06.01.2020;09:50:50;Fastcharge    ;15.02.2018;FEY;;LION;49;14500;7200;192;19;57;60;8400;3000;3777;3780;1;13032;29.64;30.54;32,7;BCS1388054;7;1
001080;06.01.2020;13:05:11;Stop          ;15.02.2018;FEY;;LION;49;14500;7200;224;19;95;100;8400;;4160;4161;1;13033;27.94;29.84;32,4;BCS1388054;7;1

File: 009524.txt
Serialnumber ; Date ; Time ; Action ; Date of Manufacture ; Manufacturer ; Battery Name ; Device-Chemistry ; Specification-Info ; Design-Capacity [mAh] ; Design-Voltage [mV] ; Battery Status ; Cycle Count ; SOC [%] ; Relativ SOC[%] ; Desired Voltage [mV]; Desired Current [mA]; Cell Voltage 1 [mV] ; Cell Voltage 2 [mV] ; Max_Error [%] ; Busvoltage[mV] ; Battery Temperature [°C] ; Charger Temperature [°C] ; Batterysystem ; Case ; PLace
009524;10.12.2019;15:28:54;Charge to 30% ;04.12.2018;FEY;;LION;49;14500;7200;224;54;92;100;8400;;4128;4128;1;13020;22.94;24.34;27,1;BCS1388054;4;12
009524;10.12.2019;20:47:57;Stop          ;04.12.2018;FEY;;LION;49;14500;7200;192;55;29;30;8400;3000;3558;3559;1;13019;32.84;30.94;33,4;BCS1388054;4;12
009524;11.12.2019;08:48:41;Fastcharge    ;04.12.2018;FEY;;LION;49;14500;7200;192;55;29;30;8400;3000;3567;3567;1;13019;26.54;27.44;31,9;BCS1388054;4;12
009524;11.12.2019;13:42:44;Stop          ;04.12.2018;FEY;;LION;49;14500;7200;224;55;94;100;8400;;4158;4159;1;13019;29.24;28.44;31,9;BCS1388054;4;12
009524;11.12.2019;15:46:31;Charge to 10% ;04.12.2018;FEY;;LION;49;14500;7200;224;55;95;100;8400;;4151;4151;1;13019;27.24;27.14;31,4;BCS1388054;4;12
009524;11.12.2019;22:50:44;Stop          ;04.12.2018;FEY;;LION;49;14500;7200;192;56;10;10;8400;3000;3353;3354;1;13018;33.14;31.04;33,2;BCS1388054;4;12
009524;12.12.2019;08:45:03;Normalcharge  ;04.12.2018;FEY;;LION;49;14500;7200;192;56;9;10;8400;3000;3362;3363;1;13020;26.74;27.14;31,9;BCS1388054;4;12
009524;12.12.2019;16:41:48;Stop          ;04.12.2018;FEY;;LION;49;14500;7200;224;56;95;100;8400;;4159;4159;1;13018;28.74;28.14;31,5;BCS1388054;4;12
009524;13.12.2019;10:48:01;Charge to 10% ;04.12.2018;FEY;;LION;49;14500;7200;224;56;95;100;8400;;4147;4147;1;13019;26.74;27.74;32,0;BCS1388054;4;12
009524;13.12.2019;15:42:25;Stop          ;04.12.2018;FEY;;LION;49;14500;7200;192;57;34;36;8400;3000;3499;3550;1;13525;32.24;33.74;34,6;BCS1388054;4;12
009524;13.12.2019;15:42:27;Cycle         ;04.12.2018;FEY;;LION;49;14500;7200;192;57;34;36;8400;3000;3499;3550;1;13525;32.24;33.74;34,6;BCS1388054;4;12
009524;14.12.2019;22:44:28;Stop          ;04.12.2018;FEY;;LION;49;14500;7200;224;58;93;99;8400;;4150;4149;1;13018;26.74;27.64;32,0;BCS1388054;4;12
009524;16.12.2019;07:43:14;Charge to 10% ;04.12.2018;FEY;;LION;49;14500;7200;224;58;93;100;8400;;4144;4143;1;13019;26.54;26.74;31,9;BCS1388054;4;12
009524;16.12.2019;14:36:44;Stop          ;04.12.2018;FEY;;LION;49;14500;7200;192;59;10;10;8400;3000;3366;3366;1;13019;31.64;29.94;32,4;BCS1388054;4;12
009524;16.12.2019;14:44:13;Charge to 90% ;04.12.2018;FEY;;LION;49;14500;7200;192;59;10;10;8400;3000;3367;3367;1;13019;31.04;29.24;31,7;BCS1388054;4;12
009524;16.12.2019;20:50:28;Stop          ;04.12.2018;FEY;;LION;49;14500;7200;192;59;84;90;8400;3000;4056;4056;1;13019;30.74;29.14;31,6;BCS1388054;4;12
009524;17.12.2019;08:37:50;Fastcharge    ;04.12.2018;FEY;;LION;49;14500;7200;192;59;84;90;8400;3000;4047;4047;1;13019;26.54;27.44;31,6;BCS1388054;4;12
009524;17.12.2019;10:31:06;Stop          ;04.12.2018;FEY;;LION;49;14500;7200;224;59;94;100;8400;;4161;4162;1;13020;28.04;27.64;31,4;BCS1388054;4;12
009524;17.12.2019;13:38:32;Charge to 10% ;04.12.2018;FEY;;LION;49;14500;7200;224;59;94;100;8400;;4149;4149;1;13020;26.84;27.34;30,8;BCS1388054;4;12
009524;17.12.2019;20:34:29;Stop          ;04.12.2018;FEY;;LION;49;14500;7200;192;60;10;10;8400;3000;3364;3365;1;13018;33.14;31.34;34,1;BCS1388054;4;12
009524;18.12.2019;08:31:26;Fastcharge    ;04.12.2018;FEY;;LION;49;14500;7200;192;60;10;10;8400;3000;3373;3375;1;13019;26.74;26.94;31,6;BCS1388054;4;12
009524;18.12.2019;14:29:12;Stop          ;04.12.2018;FEY;;LION;49;14500;7200;224;60;94;100;8400;;4159;4160;1;13020;29.34;28.54;31,9;BCS1388054;4;12
009524;19.12.2019;08:23:58;Charge to 60% ;04.12.2018;FEY;;LION;49;14500;7200;224;60;95;100;8400;;4147;4148;1;13018;26.64;27.44;31,6;BCS1388054;4;12
009524;19.12.2019;11:30:18;Stop          ;04.12.2018;FEY;;LION;49;14500;7200;192;61;57;60;8400;3000;3766;3768;1;13018;33.54;31.84;34,6;BCS1388054;4;12
009524;19.12.2019;12:16:45;Cycle         ;04.12.2018;FEY;;LION;49;14500;7200;192;61;57;60;8400;3000;3777;3779;1;13019;29.74;29.14;32,7;BCS1388054;4;12
009524;20.12.2019;17:30:48;Stop          ;04.12.2018;FEY;;LION;49;14500;7200;224;62;93;100;8400;;4150;4151;1;13018;26.84;27.14;30,6;BCS1388054;4;12
009524;06.01.2020;06:34:50;Charge to 60% ;04.12.2018;FEY;;LION;49;14500;7200;192;62;92;98;8400;;4121;4121;1;13021;26.84;27.54;31,9;BCS1388054;4;12
009524;06.01.2020;09:30:33;Stop          ;04.12.2018;FEY;;LION;49;14500;7200;192;63;57;60;8400;3000;3772;3772;1;13020;32.64;30.94;33,7;BCS1388054;4;12
009524;06.01.2020;09:50:38;Fastcharge    ;04.12.2018;FEY;;LION;49;14500;7200;192;63;57;60;8400;3000;3779;3780;1;13021;30.74;30.34;32,7;BCS1388054;4;12
009524;06.01.2020;13:09:19;Stop          ;04.12.2018;FEY;;LION;49;14500;7200;224;63;94;100;8400;;4158;4159;1;13019;28.94;27.94;31,4;BCS1388054;4;12