Folder: Battery_sort_V2/reader/backup_20210405/Batterieverzeichnis (part 2)

File: 009555.txt
Serialnumber ; Date ; Time ; Action ; Date of Manufacture ; Manufacturer ; Battery Name ; Device-Chemistry ; Specification-Info ; Design-Capacity [mAh] ; Design-Voltage [mV] ; Battery Status ; Cycle Count ; SOC [%] ; Relativ SOC[%] ; Desired Voltage [mV]; Desired Current [mA]; Cell Voltage 1 [mV] ; Cell Voltage 2 [mV] ; Max_Error [%] ; Busvoltage[mV] ; Battery Temperature [°C] ; Charger Temperature [°C] ; Batterysystem ; Case ; PLace
009555;10.12.2019;15:28:33;Charge to 30% ;04.12.2018;FEY;;LION;49;14500;7200;192;48;91;98;8400;;4109;4108;1;12996;23.54;25.24;27,1;BCS1388054;1;4
009555;10.12.2019;20:42:16;Stop          ;04.12.2018;FEY;;LION;49;14500;7200;192;49;29;30;8400;3000;3561;3561;1;12994;32.34;32.04;34,1;BCS1388054;1;4
009555;11.12.2019;08:48:18;Fastcharge    ;04.12.2018;FEY;;LION;49;14500;7200;192;49;29;31;8400;3000;3569;3569;1;12994;26.14;27.44;31,9;BCS1388054;1;4
009555;11.12.2019;13:40:21;Stop          ;04.12.2018;FEY;;LION;49;14500;7200;224;49;94;100;8400;;4161;4161;1;12994;29.14;28.84;32,4;BCS1388054;1;4
009555;11.12.2019;15:45:57;Charge to 30% ;04.12.2018;FEY;;LION;49;14500;7200;224;49;95;100;8400;;4152;4153;1;12994;26.84;27.54;31,5;BCS1388054;1;4
009555;11.12.2019;15:46:00;Stop          ;04.12.2018;FEY;;LION;49;14500;7200;224;49;95;100;8400;;4152;4153;1;12994;26.84;27.54;31,5;BCS1388054;1;4
009555;11.12.2019;15:46:13;Charge to 10% ;04.12.2018;FEY;;LION;49;14500;7200;224;49;95;100;8400;;4153;4153;1;12994;26.84;27.44;31,5;BCS1388054;1;4
009555;11.12.2019;22:50:20;Stop          ;04.12.2018;FEY;;LION;49;14500;7200;192;50;10;10;8400;3000;3358;3358;1;12993;32.74;31.34;33,4;BCS1388054;1;4
009555;12.12.2019;08:44:40;Normalcharge  ;04.12.2018;FEY;;LION;49;14500;7200;192;50;9;10;8400;3000;3367;3367;1;12994;26.34;27.54;31,9;BCS1388054;1;4
009555;12.12.2019;16:39:22;Stop          ;04.12.2018;FEY;;LION;49;14500;7200;224;50;95;100;8400;;4160;4160;1;12993;28.54;28.54;31,7;BCS1388054;1;4
009555;13.12.2019;10:47:47;Charge to 10% ;04.12.2018;FEY;;LION;49;14500;7200;224;50;95;100;8400;;4148;4148;1;12995;26.34;27.64;32,0;BCS1388054;1;4
009555;13.12.2019;15:41:58;Stop          ;04.12.2018;FEY;;LION;49;14500;7200;192;51;34;36;8400;3000;3498;3549;1;13619;31.94;36.14;34,6;BCS1388054;1;4
009555;13.12.2019;15:42:01;Cycle         ;04.12.2018;FEY;;LION;49;14500;7200;192;51;34;36;8400;3000;3498;3549;1;13619;31.94;36.14;34,6;BCS1388054;1;4
009555;14.12.2019;22:41:25;Stop          ;04.12.2018;FEY;;LION;49;14500;7200;224;52;93;99;8400;;4151;4151;1;12993;26.34;27.44;31,9;BCS1388054;1;4
009555;16.12.2019;07:43:03;Charge to 10% ;04.12.2018;FEY;;LION;49;14500;7200;224;52;93;100;8400;;4145;4145;1;12993;26.04;26.94;31,9;BCS1388054;1;4
009555;16.12.2019;14:36:13;Stop          ;04.12.2018;FEY;;LION;49;14500;7200;192;53;10;10;8400;3000;3366;3366;1;12993;31.64;30.44;32,4;BCS1388054;1;4
009555;16.12.2019;14:44:00;Charge to 90% ;04.12.2018;FEY;;LION;49;14500;7200;192;53;10;10;8400;3000;3367;3368;1;12994;31.14;29.64;31,7;BCS1388054;1;4
009555;16.12.2019;20:50:03;Stop          ;04.12.2018;FEY;;LION;49;14500;7200;192;53;84;90;8400;3000;4055;4056;1;12995;30.74;29.54;31,7;BCS1388054;1;4
009555;17.12.2019;08:37:36;Fastcharge    ;04.12.2018;FEY;;LION;49;14500;7200;192;53;84;90;8400;3000;4046;4047;1;12995;26.14;27.34;31,6;BCS1388054;1;4
009555;17.12.2019;10:31:11;Stop          ;04.12.2018;FEY;;LION;49;14500;7200;224;53;94;100;8400;;4160;4161;1;12994;27.44;27.94;31,4;BCS1388054;1;4
009555;17.12.2019;13:38:19;Charge to 10% ;04.12.2018;FEY;;LION;49;14500;7200;224;53;94;100;8400;;4149;4149;1;12994;26.44;27.24;30,8;BCS1388054;1;4
009555;17.12.2019;20:33:50;Stop          ;04.12.2018;FEY;;LION;49;14500;7200;192;55;10;10;8400;3000;3363;3363;1;12994;32.84;31.64;34,2;BCS1388054;1;4
009555;18.12.2019;08:31:14;Fastcharge    ;04.12.2018;FEY;;LION;49;14500;7200;192;55;9;10;8400;3000;3372;3373;1;12994;26.24;27.34;31,6;BCS1388054;1;4
009555;18.12.2019;14:28:33;Stop          ;04.12.2018;FEY;;LION;49;14500;7200;224;55;94;100;8400;;4160;4161;1;12994;29.24;28.74;31,9;BCS1388054;1;4
009555;19.12.2019;08:23:45;Charge to 60% ;04.12.2018;FEY;;LION;49;14500;7200;224;55;95;100;8400;;4148;4148;1;12993;26.14;27.34;31,5;BCS1388054;1;4
009555;19.12.2019;11:29:32;Stop          ;04.12.2018;FEY;;LION;49;14500;7200;192;55;57;60;8400;3000;3761;3763;1;12994;32.84;32.54;34,9;BCS1388054;1;4
009555;19.12.2019;12:16:33;Cycle         ;04.12.2018;FEY;;LION;49;14500;7200;192;55;57;60;8400;3000;3772;3775;1;12993;29.74;29.04;32,7;BCS1388054;1;4
009555;20.12.2019;17:26:19;Stop          ;04.12.2018;FEY;;LION;49;14500;7200;224;56;93;100;8400;;4151;4151;1;12993;26.34;27.14;31,2;BCS1388054;1;4
009555;06.01.2020;06:34:38;Charge to 60% ;04.12.2018;FEY;;LION;49;14500;7200;224;56;92;99;8400;;4122;4122;1;12995;26.24;27.24;31,9;BCS1388054;1;4
009555;06.01.2020;09:30:29;Stop          ;04.12.2018;FEY;;LION;49;14500;7200;192;57;56;60;8400;3000;3758;3760;1;12994;32.04;31.74;33,9;BCS1388054;1;4
009555;06.01.2020;09:50:27;Fastcharge    ;04.12.2018;FEY;;LION;49;14500;7200;192;57;56;60;8400;3000;3768;3770;1;12995;30.74;29.54;32,6;BCS1388054;1;4
009555;06.01.2020;13:07:36;Stop          ;04.12.2018;FEY;;LION;49;14500;7200;224;57;93;100;8400;;4162;4164;1;12995;28.84;28.64;31,7;BCS1388054;1;4

File: 009562.txt
Serialnumber ; Date ; Time ; Action ; Date of Manufacture ; Manufacturer ; Battery Name ; Device-Chemistry ; Specification-Info ; Design-Capacity [mAh] ; Design-Voltage [mV] ; Battery Status ; Cycle Count ; SOC [%] ; Relativ SOC[%] ; Desired Voltage [mV]; Desired Current [mA]; Cell Voltage 1 [mV] ; Cell Voltage 2 [mV] ; Max_Error [%] ; Busvoltage[mV] ; Battery Temperature [°C] ; Charger Temperature [°C] ; Batterysystem ; Case ; PLace
009562;10.12.2019;15:28:40;Charge to 30% ;04.12.2018;FEY;;LION;49;14500;7200;224;54;92;99;8400;;4131;4130;1;13014;22.94;25.44;27,1;BCS1388054;2;3
009562;10.12.2019;20:48:37;Stop          ;04.12.2018;FEY;;LION;49;14500;7200;192;55;29;30;8400;3000;3562;3562;1;13014;33.54;34.44;33,2;BCS1388054;2;3
009562;11.12.2019;08:48:24;Fastcharge    ;04.12.2018;FEY;;LION;49;14500;7200;192;55;29;30;8400;3000;3569;3569;1;13014;26.34;29.14;31,9;BCS1388054;2;3
009562;11.12.2019;13:39:47;Stop          ;04.12.2018;FEY;;LION;49;14500;7200;224;55;94;100;8400;;4159;4158;1;13015;30.14;31.44;32,5;BCS1388054;2;3
009562;11.12.2019;15:46:18;Charge to 10% ;04.12.2018;FEY;;LION;49;14500;7200;224;55;95;99;8400;;4152;4151;1;13015;27.24;29.54;31,4;BCS1388054;2;3
009562;11.12.2019;22:49:04;Stop          ;04.12.2018;FEY;;LION;49;14500;7200;192;56;10;10;8400;3000;3352;3352;1;13013;34.34;35.04;33,6;BCS1388054;2;3
009562;12.12.2019;08:44:52;Normalcharge  ;04.12.2018;FEY;;LION;49;14500;7200;192;56;9;10;8400;3000;3362;3362;1;13015;26.54;29.24;31,9;BCS1388054;2;3
009562;12.12.2019;16:40:06;Stop          ;04.12.2018;FEY;;LION;49;14500;7200;224;56;95;100;8400;;4160;4160;1;13014;29.24;31.04;31,7;BCS1388054;2;3
009562;13.12.2019;10:47:50;Charge to 10% ;04.12.2018;FEY;;LION;49;14500;7200;224;56;95;100;8400;;4148;4148;1;13015;26.54;29.34;32,0;BCS1388054;2;3
009562;13.12.2019;15:42:08;Cycle         ;04.12.2018;FEY;;LION;49;14500;7200;192;57;34;36;8400;3000;3498;3549;1;13573;33.24;39.94;34,6;BCS1388054;2;3
009562;13.12.2019;15:42:08;Stop          ;04.12.2018;FEY;;LION;49;14500;7200;192;57;34;36;8400;3000;3498;3549;1;13573;33.24;39.94;34,6;BCS1388054;2;3
009562;14.12.2019;22:48:51;Stop          ;04.12.2018;FEY;;LION;49;14500;7200;224;58;93;99;8400;;4150;4150;1;13015;26.74;29.34;32,0;BCS1388054;2;3
009562;16.12.2019;07:43:06;Charge to 10% ;04.12.2018;FEY;;LION;49;14500;7200;224;58;94;100;8400;;4145;4145;1;13015;26.24;28.74;31,9;BCS1388054;2;3
009562;16.12.2019;14:37:54;Stop          ;04.12.2018;FEY;;LION;49;14500;7200;192;60;10;10;8400;3000;3365;3365;1;13015;32.94;33.44;32,4;BCS1388054;2;3
009562;16.12.2019;14:44:03;Charge to 90% ;04.12.2018;FEY;;LION;49;14500;7200;192;60;10;10;8400;3000;3366;3366;1;13015;32.44;32.44;31,9;BCS1388054;2;3
009562;16.12.2019;20:51:09;Stop          ;04.12.2018;FEY;;LION;49;14500;7200;192;60;84;90;8400;3000;4055;4056;1;13016;31.74;32.54;31,6;BCS1388054;2;3
009562;17.12.2019;08:37:40;Fastcharge    ;04.12.2018;FEY;;LION;49;14500;7200;192;60;84;90;8400;3000;4046;4046;1;13015;26.34;29.04;31,6;BCS1388054;2;3
009562;17.12.2019;10:30:36;Stop          ;04.12.2018;FEY;;LION;49;14500;7200;224;60;94;100;8400;;4161;4161;1;13015;27.84;30.54;31,5;BCS1388054;2;3
009562;17.12.2019;13:38:22;Charge to 10% ;04.12.2018;FEY;;LION;49;14500;7200;224;60;94;100;8400;;4148;4148;1;13015;26.74;29.14;30,8;BCS1388054;2;3
009562;17.12.2019;20:36:00;Stop          ;04.12.2018;FEY;;LION;49;14500;7200;192;61;10;10;8400;3000;3364;3364;1;13015;34.14;34.64;33,6;BCS1388054;2;3
009562;18.12.2019;08:31:17;Fastcharge    ;04.12.2018;FEY;;LION;49;14500;7200;192;61;10;10;8400;3000;3372;3373;1;13015;26.44;29.24;31,6;BCS1388054;2;3
009562;18.12.2019;14:28:27;Stop          ;04.12.2018;FEY;;LION;49;14500;7200;224;61;94;100;8400;;4159;4159;1;13016;30.14;31.44;32,0;BCS1388054;2;3
009562;19.12.2019;08:23:50;Charge to 60% ;04.12.2018;FEY;;LION;49;14500;7200;224;61;95;100;8400;;4148;4148;1;13015;26.34;28.94;31,5;BCS1388054;2;3
009562;19.12.2019;11:32:11;Stop          ;04.12.2018;FEY;;LION;49;14500;7200;192;61;57;60;8400;3000;3767;3768;1;13014;34.04;35.24;34,0;BCS1388054;2;3
009562;19.12.2019;12:16:37;Cycle         ;04.12.2018;FEY;;LION;49;14500;7200;192;61;57;60;8400;3000;3775;3776;1;13015;30.74;31.44;32,7;BCS1388054;2;3
009562;20.12.2019;17:35:47;Stop          ;04.12.2018;FEY;;LION;49;14500;7200;224;62;93;100;8400;;4151;4152;1;13015;26.64;29.04;31,1;BCS1388054;2;3
009562;06.01.2020;06:34:42;Charge to 60% ;04.12.2018;FEY;;LION;49;14500;7200;224;62;92;99;8400;;4121;4121;1;13016;26.44;29.04;31,9;BCS1388054;2;3
009562;06.01.2020;09:32:11;Stop          ;04.12.2018;FEY;;LION;49;14500;7200;192;63;57;60;8400;3000;3774;3775;1;13015;33.24;34.24;33,2;BCS1388054;2;3
009562;06.01.2020;09:50:30;Fastcharge    ;04.12.2018;FEY;;LION;49;14500;7200;192;63;57;60;8400;3000;3780;3781;1;13016;31.84;32.14;32,7;BCS1388054;2;3
009562;06.01.2020;13:08:34;Stop          ;04.12.2018;FEY;;LION;49;14500;7200;224;63;94;100;8400;;4158;4159;1;13016;29.64;30.94;31,6;BCS1388054;2;3

File: 009617.txt
Serialnumber ; Date ; Time ; Action ; Date of Manufacture ; Manufacturer ; Battery Name ; Device-Chemistry ; Specification-Info ; Design-Capacity [mAh] ; Design-Voltage [mV] ; Battery Status ; Cycle Count ; SOC [%] ; Relativ SOC[%] ; Desired Voltage [mV]; Desired Current [mA]; Cell Voltage 1 [mV] ; Cell Voltage 2 [mV] ; Max_Error [%] ; Busvoltage[mV] ; Battery Temperature [°C] ; Charger Temperature [°C] ; Batterysystem ; Case ; PLace
009617;10.12.2019;15:28:47;Ladung auf 30% ;03.12.2018;FEY;;LION;49;14500;7200;224;43;93;100;8400;;4133;4133;1;13013;22.34;24.14;27,1;BCS1388054;3;2
009617;10.12.2019;20:47:21;Stop           ;03.12.2018;FEY;;LION;49;14500;7200;192;44;28;30;8400;3000;3559;3556;1;13011;33.54;34.34;33,5;BCS1388054;3;2
009617;11.12.2019;08:48:36;Fastcharge    ;03.12.2018;FEY;;LION;49;14500;7200;192;44;28;30;8400;3000;3567;3566;1;13011;26.14;28.04;31,9;BCS1388054;3;2
009617;11.12.2019;13:39:41;Stop           ;03.12.2018;FEY;;LION;49;14500;7200;224;44;94;100;8400;;4163;4163;1;13012;30.34;30.84;32,5;BCS1388054;3;2
009617;11.12.2019;15:46:24;Ladung auf 10% ;03.12.2018;FEY;;LION;49;14500;7200;224;44;95;100;8400;;4155;4155;1;13011;27.04;28.64;31,4;BCS1388054;3;2
009617;11.12.2019;22:48:44;Stop           ;03.12.2018;FEY;;LION;49;14500;7200;192;45;10;10;8400;3000;3352;3351;1;13011;34.34;34.64;33,6;BCS1388054;3;2
009617;12.12.2019;08:44:58;Normalcharge  ;03.12.2018;FEY;;LION;49;14500;7200;192;45;9;10;8400;3000;3362;3361;1;13011;26.24;28.24;31,9;BCS1388054;3;2
009617;12.12.2019;16:39:24;Stop           ;03.12.2018;FEY;;LION;49;14500;7200;224;45;95;100;8400;;4161;4162;1;13010;29.34;30.24;31,7;BCS1388054;3;2
009617;13.12.2019;10:47:57;Ladung auf 10% ;03.12.2018;FEY;;LION;49;14500;7200;224;45;95;100;8400;;4150;4150;1;13012;26.34;28.24;32,0;BCS1388054;3;2
009617;13.12.2019;15:42:18;Stop           ;03.12.2018;FEY;;LION;49;14500;7200;192;46;34;36;8400;3000;3499;3550;1;13535;33.04;38.54;34,6;BCS1388054;3;2
009617;13.12.2019;15:42:20;Cycle          ;03.12.2018;FEY;;LION;49;14500;7200;192;46;34;36;8400;3000;3499;3550;1;13535;33.04;38.54;34,6;BCS1388054;3;2
009617;14.12.2019;22:36:33;Stop           ;03.12.2018;FEY;;LION;49;14500;7200;224;47;92;100;8400;;4153;4150;1;13012;26.54;28.14;31,6;BCS1388054;3;2
009617;16.12.2019;07:43:10;Ladung auf 10% ;03.12.2018;FEY;;LION;49;14500;7200;224;47;93;100;8400;;4147;4144;1;13013;26.04;27.74;31,9;BCS1388054;3;2
009617;16.12.2019;14:34:27;Stop           ;03.12.2018;FEY;;LION;49;14500;7200;192;48;10;10;8400;3000;3366;3364;1;13011;32.84;33.04;32,5;BCS1388054;3;2
009617;16.12.2019;14:44:07;Ladung auf 90% ;03.12.2018;FEY;;LION;49;14500;7200;192;48;10;10;8400;3000;3368;3365;1;13012;32.24;31.54;31,7;BCS1388054;3;2
009617;16.12.2019;20:48:39;Stop           ;03.12.2018;FEY;;LION;49;14500;7200;192;48;84;90;8400;3000;4054;4054;1;13012;31.74;32.24;31,9;BCS1388054;3;2
009617;17.12.2019;08:37:44;Fastcharge    ;03.12.2018;FEY;;LION;49;14500;7200;192;48;84;90;8400;3000;4046;4045;1;13012;26.14;28.04;31,5;BCS1388054;3;2
009617;17.12.2019;10:30:44;Stop           ;03.12.2018;FEY;;LION;49;14500;7200;224;48;94;100;8400;;4161;4161;1;13012;27.84;29.54;31,4;BCS1388054;3;2
009617;17.12.2019;13:38:28;Ladung auf 10% ;03.12.2018;FEY;;LION;49;14500;7200;224;48;94;100;8400;;4151;4151;1;13012;26.54;28.24;30,8;BCS1388054;3;2
009617;17.12.2019;20:32:04;Stop           ;03.12.2018;FEY;;LION;49;14500;7200;192;49;10;10;8400;3000;3363;3362;1;13011;34.34;34.54;34,6;BCS1388054;3;2
009617;18.12.2019;08:31:22;Fastcharge    ;03.12.2018;FEY;;LION;49;14500;7200;192;49;10;10;8400;3000;3373;3372;1;13012;26.24;28.14;31,6;BCS1388054;3;2
009617;18.12.2019;14:26:33;Stop           ;03.12.2018;FEY;;LION;49;14500;7200;224;49;94;100;8400;;4162;4164;1;13012;30.34;30.84;32,5;BCS1388054;3;2
009617;19.12.2019;08:23:54;Ladung auf 60% ;03.12.2018;FEY;;LION;49;14500;7200;224;49;95;100;8400;;4151;4152;1;13011;26.14;28.04;31,6;BCS1388054;3;2
009617;19.12.2019;11:28:29;Stop           ;03.12.2018;FEY;;LION;49;14500;7200;192;50;57;60;8400;3000;3763;3762;1;13011;34.04;36.14;35,1;BCS1388054;3;2
009617;19.12.2019;12:16:41;Cycle          ;03.12.2018;FEY;;LION;49;14500;7200;192;50;57;60;8400;3000;3776;3776;1;13012;30.84;30.54;32,7;BCS1388054;3;2
009617;20.12.2019;17:23:28;Stop           ;03.12.2018;FEY;;LION;49;14500;7200;224;51;93;100;8400;;4152;4151;1;13013;26.64;28.34;31,9;BCS1388054;3;2
009617;06.01.2020;06:34:46;Ladung auf 60% ;03.12.2018;FEY;;LION;49;14500;7200;224;51;92;99;8400;;4124;4122;1;13012;26.24;28.04;31,9;BCS1388054;3;2
009617;06.01.2020;09:29:20;Stop           ;03.12.2018;FEY;;LION;49;14500;7200;192;51;56;60;8400;3000;3763;3760;1;13011;33.24;35.04;34,2;BCS1388054;3;2
009617;06.01.2020;09:50:34;Fastcharge    ;03.12.2018;FEY;;LION;49;14500;7200;192;51;56;60;8400;3000;3774;3771;1;13012;31.84;31.34;32,7;BCS1388054;3;2
009617;06.01.2020;13:06:26;Stop           ;03.12.2018;FEY;;LION;49;14500;7200;224;51;93;100;8400;;4162;4160;1;13013;29.84;30.64;32,1;BCS1388054;3;2

File: 009638.txt
Serialnumber ; Date ; Time ; Action ; Date of Manufacture ; Manufacturer ; Battery Name ; Device-Chemistry ; Specification-Info ; Design-Capacity [mAh] ; Design-Voltage [mV] ; Battery Status ; Cycle Count ; SOC [%] ; Relativ SOC[%] ; Desired Voltage [mV]; Desired Current [mA]; Cell Voltage 1 [mV] ; Cell Voltage 2 [mV] ; Max_Error [%] ; Busvoltage[mV] ; Battery Temperature [°C] ; Charger Temperature [°C] ; Batterysystem ; Case ; PLace
009638;10.12.2019;15:28:54;Charge to 30% ;04.12.2018;FEY;;LION;49;14500;7200;224;49;93;99;8400;;4130;4129;1;13014;23.04;24.34;27,1;BCS1388054;4;14
009638;10.12.2019;20:47:57;Stop          ;04.12.2018;FEY;;LION;49;14500;7200;192;50;29;30;8400;3000;3560;3561;1;13012;34.54;35.34;33,4;BCS1388054;4;14
009638;11.12.2019;08:48:41;Fastcharge    ;04.12.2018;FEY;;LION;49;14500;7200;192;50;29;30;8400;3000;3569;3570;1;13013;27.04;28.24;31,9;BCS1388054;4;14
009638;11.12.2019;13:42:44;Stop          ;04.12.2018;FEY;;LION;49;14500;7200;224;50;95;100;8400;;4161;4161;1;13014;31.04;30.94;31,9;BCS1388054;4;14
009638;11.12.2019;15:46:31;Charge to 10% ;04.12.2018;FEY;;LION;49;14500;7200;224;50;96;99;8400;;4154;4154;1;13013;27.84;28.64;31,4;BCS1388054;4;14
009638;11.12.2019;22:50:44;Stop          ;04.12.2018;FEY;;LION;49;14500;7200;192;51;10;10;8400;3000;3360;3362;1;13011;35.24;34.74;33,2;BCS1388054;4;14
009638;12.12.2019;08:45:03;Normalcharge  ;04.12.2018;FEY;;LION;49;14500;7200;192;51;9;10;8400;3000;3368;3370;1;13013;27.14;28.34;31,9;BCS1388054;4;14
009638;12.12.2019;16:41:48;Stop          ;04.12.2018;FEY;;LION;49;14500;7200;224;51;96;100;8400;;4160;4160;1;13012;30.14;30.34;31,5;BCS1388054;4;14
009638;13.12.2019;10:48:01;Charge to 10% ;04.12.2018;FEY;;LION;49;14500;7200;224;51;95;100;8400;;4149;4149;1;13012;27.24;28.34;32,0;BCS1388054;4;14
009638;13.12.2019;15:42:25;Stop          ;04.12.2018;FEY;;LION;49;14500;7200;192;52;34;36;8400;3000;3502;3555;1;13511;33.94;41.44;34,6;BCS1388054;4;14
009638;13.12.2019;15:42:27;Cycle         ;04.12.2018;FEY;;LION;49;14500;7200;192;52;34;36;8400;3000;3502;3555;1;13510;33.94;41.44;34,6;BCS1388054;4;14
009638;14.12.2019;22:44:28;Stop          ;04.12.2018;FEY;;LION;49;14500;7200;224;53;93;100;8400;;4151;4152;1;13013;27.34;28.44;32,0;BCS1388054;4;14
009638;16.12.2019;07:43:14;Charge to 10% ;04.12.2018;FEY;;LION;49;14500;7200;224;53;94;100;8400;;4146;4146;1;13013;27.04;28.04;31,9;BCS1388054;4;14
009638;16.12.2019;14:36:44;Stop          ;04.12.2018;FEY;;LION;49;14500;7200;192;54;10;10;8400;3000;3365;3368;1;13012;33.64;33.84;32,4;BCS1388054;4;14
009638;16.12.2019;14:44:13;Charge to 90% ;04.12.2018;FEY;;LION;49;14500;7200;192;54;10;10;8400;3000;3368;3370;1;13013;32.94;31.74;31,7;BCS1388054;4;14
009638;16.12.2019;20:50:28;Stop          ;04.12.2018;FEY;;LION;49;14500;7200;192;54;84;90;8400;3000;4057;4059;1;13014;32.84;33.14;31,6;BCS1388054;4;14
009638;17.12.2019;08:37:50;Fastcharge    ;04.12.2018;FEY;;LION;49;14500;7200;192;54;84;90;8400;3000;4048;4050;1;13013;27.04;28.24;31,6;BCS1388054;4;14
009638;17.12.2019;10:31:06;Stop          ;04.12.2018;FEY;;LION;49;14500;7200;224;54;94;100;8400;;4162;4162;1;13013;29.04;30.44;31,4;BCS1388054;4;14
009638;17.12.2019;13:38:32;Charge to 10% ;04.12.2018;FEY;;LION;49;14500;7200;224;54;94;100;8400;;4151;4151;1;13013;27.34;28.24;30,8;BCS1388054;4;14
009638;17.12.2019;20:34:29;Stop          ;04.12.2018;FEY;;LION;49;14500;7200;192;55;10;10;8400;3000;3366;3369;1;13011;35.34;35.14;34,1;BCS1388054;4;14
009638;18.12.2019;08:31:26;Fastcharge    ;04.12.2018;FEY;;LION;49;14500;7200;192;55;10;11;8400;3000;3376;3378;1;13013;27.14;28.34;31,6;BCS1388054;4;14
009638;18.12.2019;14:29:12;Stop          ;04.12.2018;FEY;;LION;49;14500;7200;224;55;95;100;8400;;4161;4163;1;13014;31.14;31.04;31,9;BCS1388054;4;14
009638;19.12.2019;08:23:58;Charge to 60% ;04.12.2018;FEY;;LION;49;14500;7200;224;55;95;100;8400;;4150;4151;1;13013;27.04;28.14;31,6;BCS1388054;4;14
009638;19.12.2019;11:30:18;Stop          ;04.12.2018;FEY;;LION;49;14500;7200;192;56;58;60;8400;3000;3764;3768;1;13011;35.14;37.34;34,6;BCS1388054;4;14
009638;19.12.2019;12:16:45;Cycle         ;04.12.2018;FEY;;LION;49;14500;7200;192;56;58;60;8400;3000;3776;3780;1;13013;31.44;30.94;32,7;BCS1388054;4;14
009638;20.12.2019;17:30:48;Stop          ;04.12.2018;FEY;;LION;49;14500;7200;224;57;94;100;8400;;4152;4153;1;13013;27.54;28.14;30,6;BCS1388054;4;14
009638;06.01.2020;06:34:50;Charge to 60% ;04.12.2018;FEY;;LION;49;14500;7200;192;57;92;98;8400;;4123;4123;1;13014;27.34;28.34;31,9;BCS1388054;4;14
009638;06.01.2020;09:30:33;Stop          ;04.12.2018;FEY;;LION;49;14500;7200;192;57;57;60;8400;3000;3770;3773;1;13012;34.24;35.84;33,7;BCS1388054;4;14
009638;06.01.2020;09:50:38;Fastcharge    ;04.12.2018;FEY;;LION;49;14500;7200;192;57;57;60;8400;3000;3779;3782;1;13013;32.64;31.64;32,7;BCS1388054;4;14
009638;06.01.2020;13:09:19;Stop          ;04.12.2018;FEY;;LION;49;14500;7200;224;57;94;100;8400;;4159;4159;1;13014;30.64;30.44;31,4;BCS1388054;4;14

File: 009698.txt
Serialnumber ; Date ; Time ; Action ; Date of Manufacture ; Manufacturer ; Battery Name ; Device-Chemistry ; Specification-Info ; Design-Capacity [mAh] ; Design-Voltage [mV] ; Battery Status ; Cycle Count ; SOC [%] ; Relativ SOC[%] ; Desired Voltage [mV]; Desired Current [mA]; Cell Voltage 1 [mV] ; Cell Voltage 2 [mV] ; Max_Error [%] ; Busvoltage[mV] ; Battery Temperature [°C] ; Charger Temperature [°C] ; Batterysystem ; Case ; PLace
009698;10.12.2019;15:28:41;Charge to 30% ;04.12.2018;FEY;;LION;49;14500;7200;224;52;92;100;8400;;4132;4131;1;12994;22.94;24.84;27,1;BCS1388054;2;18
009698;10.12.2019;20:48:37;Stop          ;04.12.2018;FEY;;LION;49;14500;7200;192;52;28;30;8400;3000;3561;3559;1;12992;32.44;34.34;33,2;BCS1388054;2;18
009698;11.12.2019;08:48:24;Fastcharge    ;04.12.2018;FEY;;LION;49;14500;7200;192;52;28;30;8400;3000;3569;3568;1;12993;26.04;28.04;31,9;BCS1388054;2;18
009698;11.12.2019;13:39:47;Stop          ;04.12.2018;FEY;;LION;49;14500;7200;224;52;94;100;8400;;4160;4160;1;12992;28.94;31.04;32,5;BCS1388054;2;18
009698;11.12.2019;15:46:18;Charge to 10% ;04.12.2018;FEY;;LION;49;14500;7200;224;52;95;100;8400;;4152;4152;1;12992;26.74;28.64;31,4;BCS1388054;2;18
009698;11.12.2019;22:49:04;Stop          ;04.12.2018;FEY;;LION;49;14500;7200;192;54;10;10;8400;3000;3354;3353;1;12993;33.04;34.94;33,6;BCS1388054;2;18
009698;12.12.2019;08:44:52;Normalcharge  ;04.12.2018;FEY;;LION;49;14500;7200;192;54;9;10;8400;3000;3364;3363;1;12992;26.24;28.24;31,9;BCS1388054;2;18
009698;12.12.2019;16:40:06;Stop          ;04.12.2018;FEY;;LION;49;14500;7200;224;54;95;100;8400;;4161;4160;1;12992;28.44;30.44;31,7;BCS1388054;2;18
009698;13.12.2019;10:47:50;Charge to 10% ;04.12.2018;FEY;;LION;49;14500;7200;224;54;95;100;8400;;4148;4148;1;12992;26.24;28.24;32,0;BCS1388054;2;18
009698;13.12.2019;15:42:08;Cycle         ;04.12.2018;FEY;;LION;49;14500;7200;192;54;34;36;8400;3000;3500;3550;1;13566;32.24;40.94;34,6;BCS1388054;2;18
009698;13.12.2019;15:42:08;Stop          ;04.12.2018;FEY;;LION;49;14500;7200;192;54;34;36;8400;3000;3500;3550;1;13566;32.24;40.94;34,6;BCS1388054;2;18
009698;14.12.2019;22:48:51;Stop          ;04.12.2018;FEY;;LION;49;14500;7200;224;56;93;99;8400;;4151;4150;1;12993;26.34;28.34;32,0;BCS1388054;2;18
009698;16.12.2019;07:43:06;Charge to 10% ;04.12.2018;FEY;;LION;49;14500;7200;224;56;93;100;8400;;4145;4144;1;12993;25.94;27.64;31,9;BCS1388054;2;18
009698;16.12.2019;14:37:54;Stop          ;04.12.2018;FEY;;LION;49;14500;7200;192;57;10;10;8400;3000;3367;3366;1;12994;31.54;33.04;32,4;BCS1388054;2;18
009698;16.12.2019;14:44:03;Charge to 90% ;04.12.2018;FEY;;LION;49;14500;7200;192;57;10;10;8400;3000;3368;3367;1;12993;31.04;32.14;31,9;BCS1388054;2;18
009698;16.12.2019;20:51:09;Stop          ;04.12.2018;FEY;;LION;49;14500;7200;192;57;84;90;8400;3000;4055;4055;1;12994;30.44;32.24;31,6;BCS1388054;2;18
009698;17.12.2019;08:37:41;Fastcharge    ;04.12.2018;FEY;;LION;49;14500;7200;192;57;84;90;8400;3000;4047;4046;1;12993;26.04;27.94;31,6;BCS1388054;2;18
009698;17.12.2019;10:30:36;Stop          ;04.12.2018;FEY;;LION;49;14500;7200;224;57;94;100;8400;;4163;4163;1;12994;27.64;30.44;31,5;BCS1388054;2;18
009698;17.12.2019;13:38:22;Charge to 10% ;04.12.2018;FEY;;LION;49;14500;7200;224;57;94;100;8400;;4150;4151;1;12993;26.34;28.24;30,8;BCS1388054;2;18
009698;17.12.2019;20:36:00;Stop          ;04.12.2018;FEY;;LION;49;14500;7200;192;58;10;10;8400;3000;3365;3365;1;12995;32.84;34.34;33,6;BCS1388054;2;18
009698;18.12.2019;08:31:17;Fastcharge    ;04.12.2018;FEY;;LION;49;14500;7200;192;58;10;10;8400;3000;3374;3373;1;12994;26.24;28.24;31,6;BCS1388054;2;18
009698;18.12.2019;14:28:27;Stop          ;04.12.2018;FEY;;LION;49;14500;7200;224;58;94;100;8400;;4160;4161;1;12994;29.04;30.94;32,0;BCS1388054;2;18
009698;19.12.2019;08:23:50;Charge to 60% ;04.12.2018;FEY;;LION;49;14500;7200;224;58;95;100;8400;;4148;4149;1;12993;26.04;28.04;31,5;BCS1388054;2;18
009698;19.12.2019;11:32:11;Stop          ;04.12.2018;FEY;;LION;49;14500;7200;192;58;57;60;8400;3000;3767;3767;1;12993;32.94;35.04;34,0;BCS1388054;2;18
009698;19.12.2019;12:16:37;Cycle         ;04.12.2018;FEY;;LION;49;14500;7200;192;58;57;60;8400;3000;3775;3775;1;12994;29.34;30.74;32,7;BCS1388054;2;18
009698;20.12.2019;17:35:47;Stop          ;04.12.2018;FEY;;LION;49;14500;7200;224;60;93;100;8400;;4151;4151;1;12994;26.24;28.04;31,1;BCS1388054;2;18
009698;06.01.2020;06:34:42;Charge to 60% ;04.12.2018;FEY;;LION;49;14500;7200;224;60;92;99;8400;;4122;4122;1;12995;26.14;28.04;31,9;BCS1388054;2;18
009698;06.01.2020;09:32:11;Stop          ;04.12.2018;FEY;;LION;49;14500;7200;192;60;56;60;8400;3000;3767;3767;1;12994;32.24;34.44;33,2;BCS1388054;2;18
009698;06.01.2020;09:50:30;Fastcharge    ;04.12.2018;FEY;;LION;49;14500;7200;192;60;56;60;8400;3000;3774;3774;1;12995;30.54;31.54;32,7;BCS1388054;2;18
009698;06.01.2020;13:08:34;Stop          ;04.12.2018;FEY;;LION;49;14500;7200;224;60;94;100;8400;;4159;4159;1;12994;28.54;30.54;31,6;BCS1388054;2;18