Folder: Battery_sort_V2/reader/backup_20210405/Batterieverzeichnis (part 3)

File: 009731.txt
Serialnumber ; Date ; Time ; Action ; Date of Manufacture ; Manufacturer ; Battery Name ; Device-Chemistry ; Specification-Info ; Design-Capacity [mAh] ; Design-Voltage [mV] ; Battery Status ; Cycle Count ; SOC [%] ; Relativ SOC[%] ; Desired Voltage [mV]; Desired Current [mA]; Cell Voltage 1 [mV] ; Cell Voltage 2 [mV] ; Max_Error [%] ; Busvoltage[mV] ; Battery Temperature [°C] ; Charger Temperature [°C] ; Batterysystem ; Case ; PLace
009731;07.12.2020;04:14:21;Cycle         ;04.12.2018;FEY;;LION;49;14500;7200;16576;3;97;99;;;4155;4155;1;13012;25.64;26.74;30,3;BCS1388054;2;6
009731;08.12.2020;16:19:44;Stop          ;04.12.2018;FEY;;LION;49;14500;7200;16576;3;97;98;;;4152;4152;1;13011;27.54;28.14;31,9;BCS1388054;2;6
009731;12.01.2021;04:17:47;Charge to 90% ;04.12.2018;FEY;;LION;49;14500;7200;16576;3;96;97;;;4136;4135;1;13030;23.04;22.84;23,8;BCS1388054;7;6
009731;12.01.2021;04:57:19;Stop          ;04.12.2018;FEY;;LION;49;14500;7200;192;3;89;90;8400;3000;4062;4061;1;13024;26.84;27.14;31,5;BCS1388054;7;6
009731;12.01.2021;05:22:01;Cycle         ;04.12.2018;FEY;;LION;49;14500;7200;192;3;89;90;8400;3000;4067;4067;1;13025;26.64;25.94;30,4;BCS1388054;7;6
009731;13.01.2021;08:19:29;Stop          ;04.12.2018;FEY;;LION;49;14500;7200;224;4;97;100;8400;;4154;4154;1;13026;26.24;26.04;30,7;BCS1388054;7;6
009731;22.02.2021;17:31:46;Normalcharge  ;04.12.2018;FEY;;LION;49;14500;7200;192;5;40;42;8400;3000;3612;3611;1;13013;26.24;26.34;31,6;BCS1388054;1;16
009731;22.02.2021;23:06:28;Stop          ;04.12.2018;FEY;;LION;49;14500;7200;224;5;97;100;8400;;4164;4167;1;13016;26.84;27.74;30,6;BCS1388054;1;16