Folder: Battery_sort_V2/reader/backup_20210405/Batterieverzeichnis_new

Note: reader/backup_20210405/Batterieverzeichnis_new/009512.txt
Serialnumber ; Date ; Time ; Action ; Date of Manufacture ; Manufacturer ; Battery Name ; Device-Chemistry ; Specification-Info ; Design-Capacity [mAh] ; Design-Voltage [mV] ; Battery Status ; Cycle Count ; SOC [%] ; Relativ SOC[%] ; Desired Voltage [mV]; Desired Current [mA]; Cell Voltage 1 [mV] ; Cell Voltage 2 [mV] ; Max_Error [%] ; Busvoltage[mV] ; Battery Temperature [°C] ; Charger Temperature [°C] ; Batterysystem ; Case ; PLace
009512;07.02.2021;08:46:49;Normalcharge  ;04.12.2018;FEY;;LION;49;14500;7200;16576;3;93;96;;;4109;4110;1;13003;23.54;25.44;29,2;BCS1388054;2;16
009512;07.02.2021;11:52:12;Stop          ;04.12.2018;FEY;;LION;49;14500;7200;16576;3;93;96;;;4109;4111;1;13005;25.74;27.04;29,7;BCS1388054;2;16
009512;03.03.2021;08:17:29;Normalcharge  ;04.12.2018;FEY;;LION;49;14500;7200;192;3;82;85;8400;3000;3991;3993;1;13008;23.04;23.04;23,5;BCS1388054;4;17
009512;03.03.2021;10:32:46;Stop          ;04.12.2018;FEY;;LION;49;14500;7200;224;3;96;100;8400;;4158;4162;1;13002;28.14;29.24;32,0;BCS1388054;4;17
009512;04.04.2021;11:50:22;Normalcharge  ;04.12.2018;FEY;;LION;49;14500;7200;192;4;52;55;8400;3000;3696;3697;1;13017;24.94;26.64;27,9;BCS1388054;4;16
009512;04.04.2021;11:51:36;Stop          ;04.12.2018;FEY;;LION;49;14500;7200;128;4;52;55;8400;3000;3785;3739;1;12724;24.94;29.24;28,6;BCS1388054;4;16

Note: reader/backup_20210405/Batterieverzeichnis_new/009547.txt
Serialnumber ; Date ; Time ; Action ; Date of Manufacture ; Manufacturer ; Battery Name ; Device-Chemistry ; Specification-Info ; Design-Capacity [mAh] ; Design-Voltage [mV] ; Battery Status ; Cycle Count ; SOC [%] ; Relativ SOC[%] ; Desired Voltage [mV]; Desired Current [mA]; Cell Voltage 1 [mV] ; Cell Voltage 2 [mV] ; Max_Error [%] ; Busvoltage[mV] ; Battery Temperature [°C] ; Charger Temperature [°C] ; Batterysystem ; Case ; PLace
009547;30.11.2020;09:42:55;Stop          ;03.12.2018;FEY;;LION;49;14500;7200;224;3;98;100;8400;;4154;4152;1;13029;27.54;28.14;31,7;BCS1388054;7;16
009547;07.02.2021;08:46:42;Normalcharge  ;03.12.2018;FEY;;LION;49;14500;7200;192;3;97;98;8400;;4122;4120;1;13000;23.64;25.04;29,2;BCS1388054;1;10
009547;07.02.2021;11:52:07;Stop          ;03.12.2018;FEY;;LION;49;14500;7200;192;3;97;98;8400;;4122;4120;1;13000;25.64;26.04;29,7;BCS1388054;1;10
009547;03.03.2021;08:17:21;Normalcharge  ;03.12.2018;FEY;;LION;49;14500;7200;192;3;93;94;8400;3000;4079;4078;1;13012;23.14;23.14;23,5;BCS1388054;3;5
009547;04.03.2021;07:53:39;Stop           ;03.12.2018;FEY;;LION;49;14500;7200;224;3;99;100;8400;;4147;4145;1;13006;26.34;27.14;31,5;BCS1388054;3;5
009547;04.04.2021;11:49:55;Normalcharge  ;03.12.2018;FEY;;LION;49;14500;7200;192;4;53;55;8400;3000;3691;3689;1;13022;24.94;25.94;27,5;BCS1388054;7;12
009547;04.04.2021;11:51:17;Stop          ;03.12.2018;FEY;;LION;49;14500;7200;128;4;54;55;8400;3000;3779;3730;1;12739;25.04;27.84;28,4;BCS1388054;7;12

Note: reader/backup_20210405/Batterieverzeichnis_new/009577.txt
009577;29.11.2020;04:42:29;Cycle         ;04.12.2018;FEY;;LION;49;14500;7200;192;2;96;98;8400;;4135;4135;1;12987;23.34;21.54;27,5;BCS1388054;6;16
009577;12.01.2021;04:17:22;Charge to 90% ;04.12.2018;FEY;;LION;49;14500;7200;192;2;95;97;8400;;4116;4116;1;13005;23.24;24.34;23,5;BCS1388054;2;12
009577;12.01.2021;04:54:21;Stop          ;04.12.2018;FEY;;LION;49;14500;7200;192;2;88;90;8400;3000;4053;4053;1;12998;27.94;29.64;31,9;BCS1388054;2;12
009577;12.01.2021;05:21:40;Cycle         ;04.12.2018;FEY;;LION;49;14500;7200;192;2;88;90;8400;3000;4057;4057;1;12998;27.54;27.94;30,6;BCS1388054;2;12
009577;13.01.2021;08:20:19;Stop          ;04.12.2018;FEY;;LION;49;14500;7200;224;3;97;100;8400;;4155;4154;1;12998;27.04;27.94;30,8;BCS1388054;2;12
009577;21.02.2021;13:43:48;Normalcharge  ;04.12.2018;FEY;;LION;49;14500;7200;192;4;21;22;8400;3000;3486;3485;1;13007;23.14;22.74;27,7;BCS1388054;3;2
009577;21.02.2021;20:44:52;Stop           ;04.12.2018;FEY;;LION;49;14500;7200;224;4;97;100;8400;;4164;4163;1;13001;27.24;28.44;31,2;BCS1388054;3;2
009577;04.04.2021;11:50:39;Normalcharge  ;04.12.2018;FEY;;LION;49;14500;7200;192;4;52;54;8400;3000;3684;3682;1;13012;25.14;26.24;28,1;BCS1388054;1;16
009577;04.04.2021;11:51:54;Stop          ;04.12.2018;FEY;;LION;49;14500;7200;128;4;52;54;8400;3000;3772;3722;1;12561;25.14;28.74;28,8;BCS1388054;1;16

Note: reader/backup_20210405/Batterieverzeichnis_new/009583.txt
Serialnumber ; Date ; Time ; Action ; Date of Manufacture ; Manufacturer ; Battery Name ; Device-Chemistry ; Specification-Info ; Design-Capacity [mAh] ; Design-Voltage [mV] ; Battery Status ; Cycle Count ; SOC [%] ; Relativ SOC[%] ; Desired Voltage [mV]; Desired Current [mA]; Cell Voltage 1 [mV] ; Cell Voltage 2 [mV] ; Max_Error [%] ; Busvoltage[mV] ; Battery Temperature [°C] ; Charger Temperature [°C] ; Batterysystem ; Case ; PLace
009583;02.12.2020;11:43:08;Cycle         ;04.12.2018;FEY;;LION;49;14500;7200;192;3;79;80;8400;3000;3929;3929;1;12990;26.14;26.64;28,4;BCS1388054;1;5
009583;03.12.2020;15:31:47;Stop          ;04.12.2018;FEY;;LION;49;14500;7200;224;4;96;100;8400;;4155;4156;1;12991;26.74;27.04;28,8;BCS1388054;1;5
009583;03.12.2020;17:28:02;Normalcharge  ;04.12.2018;FEY;;LION;49;14500;7200;224;4;96;100;8400;;4153;4155;1;12992;26.64;27.04;28,9;BCS1388054;1;5

Note: reader/backup_20210405/Batterieverzeichnis_new/009587.txt
Serialnumber ; Date ; Time ; Action ; Date of Manufacture ; Manufacturer ; Battery Name ; Device-Chemistry ; Specification-Info ; Design-Capacity [mAh] ; Design-Voltage [mV] ; Battery Status ; Cycle Count ; SOC [%] ; Relativ SOC[%] ; Desired Voltage [mV]; Desired Current [mA]; Cell Voltage 1 [mV] ; Cell Voltage 2 [mV] ; Max_Error [%] ; Busvoltage[mV] ; Battery Temperature [°C] ; Charger Temperature [°C] ; Batterysystem ; Case ; PLace
009587;07.02.2021;08:46:49;Normalcharge  ;04.12.2018;FEY;;LION;49;14500;7200;192;2;96;96;8400;;4112;4111;1;12999;23.74;26.04;29,2;BCS1388054;2;17
009587;07.02.2021;11:52:12;Stop          ;04.12.2018;FEY;;LION;49;14500;7200;192;2;96;96;8400;;4111;4111;1;13001;25.94;27.64;29,7;BCS1388054;2;17
009587;03.03.2021;08:17:21;Normalcharge  ;04.12.2018;FEY;;LION;49;14500;7200;192;3;94;93;8400;3000;4086;4085;1;13012;23.34;23.34;23,5;BCS1388054;3;10
009587;04.03.2021;07:53:40;Stop           ;04.12.2018;FEY;;LION;49;14500;7200;224;3;101;100;8400;;4148;4147;1;13006;26.64;27.54;31,5;BCS1388054;3;10
009587;04.04.2021;11:49:55;Normalcharge  ;04.12.2018;FEY;;LION;49;14500;7200;192;3;53;54;8400;3000;3690;3691;1;13033;25.24;25.14;27,5;BCS1388054;7;16
009587;04.04.2021;11:51:17;Stop          ;04.12.2018;FEY;;LION;49;14500;7200;128;3;53;55;8400;3000;3779;3732;1;12734;25.24;28.04;28,4;BCS1388054;7;16

Note: reader/backup_20210405/Batterieverzeichnis_new/009611.txt
009611;29.11.2020;04:33:37;Cycle          ;04.12.2018;FEY;;LION;49;14500;7200;224;3;100;99;8400;;4149;4146;1;13004;22.44;23.64;27,4;BCS1388054;3;16
009611;07.02.2021;08:46:42;Normalcharge  ;04.12.2018;FEY;;LION;49;14500;7200;224;5;96;99;8400;;4119;4118;1;12992;23.04;26.14;29,2;BCS1388054;1;1
009611;07.02.2021;11:52:07;Stop          ;04.12.2018;FEY;;LION;49;14500;7200;192;5;96;98;8400;;4120;4118;1;12992;25.24;27.34;29,7;BCS1388054;1;1
009611;03.03.2021;08:17:08;Normalcharge  ;04.12.2018;FEY;;LION;49;14500;7200;192;5;94;97;8400;;4102;4101;1;13005;22.64;24.34;23,5;BCS1388054;1;15
009611;04.03.2021;07:53:51;Stop          ;04.12.2018;FEY;;LION;49;14500;7200;192;5;94;96;8400;;4101;4100;1;12997;25.54;29.24;31,6;BCS1388054;1;15
009611;04.04.2021;11:50:10;Normalcharge  ;04.12.2018;FEY;;LION;49;14500;7200;192;6;13;13;8400;3000;3385;3383;1;13007;24.44;25.84;27,8;BCS1388054;5;12
009611;04.04.2021;11:51:30;Stop          ;04.12.2018;FEY;;LION;49;14500;7200;128;6;13;13;8400;3000;3489;3441;1;12659;24.54;27.74;28,5;BCS1388054;5;12

File: 009530.txt
Serialnumber ; Date ; Time ; Action ; Date of Manufacture ; Manufacturer ; Battery Name ; Device-Chemistry ; Specification-Info ; Design-Capacity [mAh] ; Design-Voltage [mV] ; Battery Status ; Cycle Count ; SOC [%] ; Relativ SOC[%] ; Desired Voltage [mV]; Desired Current [mA]; Cell Voltage 1 [mV] ; Cell Voltage 2 [mV] ; Max_Error [%] ; Busvoltage[mV] ; Battery Temperature [°C] ; Charger Temperature [°C] ; Batterysystem ; Case ; PLace
009530;10.12.2019;15:29:01;Charge to 30% ;04.12.2018;FEY;;LION;49;14500;7200;224;47;92;100;8400;;4130;4130;1;13015;22.54;24.54;27,1;BCS1388054;5;16
009530;10.12.2019;20:48:54;Stop          ;04.12.2018;FEY;;LION;49;14500;7200;192;48;28;30;8400;3000;3562;3562;1;13014;33.64;33.74;33,1;BCS1388054;5;16
009530;11.12.2019;08:48:53;Fastcharge    ;04.12.2018;FEY;;LION;49;14500;7200;192;48;28;30;8400;3000;3569;3569;1;13013;26.54;28.34;31,9;BCS1388054;5;16
009530;11.12.2019;13:40:11;Stop          ;04.12.2018;FEY;;LION;49;14500;7200;224;48;94;100;8400;;4162;4162;1;13013;30.54;31.04;32,4;BCS1388054;5;16
009530;11.12.2019;15:46:40;Charge to 10% ;04.12.2018;FEY;;LION;49;14500;7200;224;48;95;100;8400;;4153;4154;1;13013;27.34;28.64;31,4;BCS1388054;5;16
009530;11.12.2019;22:49:07;Stop          ;04.12.2018;FEY;;LION;49;14500;7200;192;49;10;10;8400;3000;3357;3357;1;13013;34.44;34.54;33,5;BCS1388054;5;16
009530;12.12.2019;08:45:10;Normalcharge  ;04.12.2018;FEY;;LION;49;14500;7200;192;49;9;10;8400;3000;3366;3366;1;13014;26.64;28.44;31,7;BCS1388054;5;16
009530;12.12.2019;16:41:20;Stop          ;04.12.2018;FEY;;LION;49;14500;7200;224;49;95;100;8400;;4159;4158;1;13014;29.54;30.14;31,6;BCS1388054;5;16
009530;13.12.2019;10:48:05;Charge to 10% ;04.12.2018;FEY;;LION;49;14500;7200;224;49;95;100;8400;;4148;4148;1;13013;26.74;28.44;32,0;BCS1388054;5;16
009530;13.12.2019;15:40:55;Stop          ;04.12.2018;FEY;;LION;49;14500;7200;192;50;34;36;8400;3000;3499;3550;1;13530;33.54;38.24;34,6;BCS1388054;5;16
009530;13.12.2019;15:41:42;Cycle         ;04.12.2018;FEY;;LION;49;14500;7200;192;50;34;36;8400;3000;3582;3581;1;13012;33.54;36.34;34,5;BCS1388054;5;16
009530;14.12.2019;22:39:35;Stop          ;04.12.2018;FEY;;LION;49;14500;7200;224;51;92;99;8400;;4152;4152;1;13013;26.74;28.44;31,7;BCS1388054;5;16
009530;16.12.2019;07:43:20;Charge to 10% ;04.12.2018;FEY;;LION;49;14500;7200;224;51;93;100;8400;;4146;4146;1;13013;26.44;27.74;31,9;BCS1388054;5;16
009530;16.12.2019;14:34:29;Stop          ;04.12.2018;FEY;;LION;49;14500;7200;192;52;10;10;8400;3000;3367;3367;1;13013;32.94;33.04;32,5;BCS1388054;5;16
009530;16.12.2019;14:44:17;Charge to 90% ;04.12.2018;FEY;;LION;49;14500;7200;192;52;10;10;8400;3000;3369;3369;1;13013;32.14;31.24;31,9;BCS1388054;5;16
009530;16.12.2019;20:48:55;Stop          ;04.12.2018;FEY;;LION;49;14500;7200;192;52;84;90;8400;3000;4053;4054;1;13014;32.34;32.54;31,9;BCS1388054;5;16
009530;17.12.2019;08:37:54;Fastcharge    ;04.12.2018;FEY;;LION;49;14500;7200;192;52;84;90;8400;3000;4045;4045;1;13013;26.54;28.34;31,6;BCS1388054;5;16
009530;17.12.2019;10:33:46;Stop          ;04.12.2018;FEY;;LION;49;14500;7200;224;52;94;100;8400;;4160;4161;1;13014;28.34;29.54;31,1;BCS1388054;5;16
009530;17.12.2019;10:33:46;Stop          ;04.12.2018;FEY;;LION;49;14500;7200;224;52;94;100;8400;;4160;4161;1;13014;28.34;29.54;31,1;BCS1388054;5;16
009530;17.12.2019;13:38:36;Charge to 10% ;04.12.2018;FEY;;LION;49;14500;7200;224;52;94;100;8400;;4150;4150;1;13013;26.84;28.24;30,8;BCS1388054;5;16
009530;17.12.2019;20:33:18;Stop          ;04.12.2018;FEY;;LION;49;14500;7200;192;53;10;10;8400;3000;3364;3364;1;13013;34.54;34.64;34,5;BCS1388054;5;16
009530;18.12.2019;08:31:30;Fastcharge    ;04.12.2018;FEY;;LION;49;14500;7200;192;53;10;10;8400;3000;3373;3373;1;13012;26.64;28.34;31,6;BCS1388054;5;16
009530;18.12.2019;14:29:28;Stop          ;04.12.2018;FEY;;LION;49;14500;7200;224;53;94;100;8400;;4161;4161;1;13013;30.64;30.64;31,7;BCS1388054;5;16
009530;19.12.2019;08:24:02;Charge to 60% ;04.12.2018;FEY;;LION;49;14500;7200;224;53;95;100;8400;;4149;4149;1;13013;26.64;28.34;31,5;BCS1388054;5;16
009530;19.12.2019;11:31:09;Stop          ;04.12.2018;FEY;;LION;49;14500;7200;192;54;57;60;8400;3000;3766;3766;1;13012;34.24;34.74;34,4;BCS1388054;5;16
009530;19.12.2019;12:16:49;Cycle         ;04.12.2018;FEY;;LION;49;14500;7200;192;54;57;60;8400;3000;3774;3774;1;13013;31.04;30.74;32,7;BCS1388054;5;16
009530;20.12.2019;17:27:50;Stop          ;04.12.2018;FEY;;LION;49;14500;7200;224;55;93;100;8400;;4152;4152;1;13015;27.04;28.24;31,0;BCS1388054;5;16
009530;06.01.2020;06:34:55;Charge to 60% ;04.12.2018;FEY;;LION;49;14500;7200;224;55;92;99;8400;;4122;4122;1;13014;26.84;28.54;31,9;BCS1388054;5;16
009530;06.01.2020;09:30:26;Stop          ;04.12.2018;FEY;;LION;49;14500;7200;192;56;56;60;8400;3000;3768;3768;1;13014;33.44;34.34;33,9;BCS1388054;5;16
009530;06.01.2020;09:50:42;Fastcharge    ;04.12.2018;FEY;;LION;49;14500;7200;192;56;56;60;8400;3000;3776;3776;1;13014;32.04;31.44;32,7;BCS1388054;5;16
009530;06.01.2020;13:09:56;Stop          ;04.12.2018;FEY;;LION;49;14500;7200;224;56;93;100;8400;;4158;4159;1;13015;30.04;30.14;31,4;BCS1388054;5;16

File: 009550.txt
Serialnumber ; Date ; Time ; Action ; Date of Manufacture ; Manufacturer ; Battery Name ; Device-Chemistry ; Specification-Info ; Design-Capacity [mAh] ; Design-Voltage [mV] ; Battery Status ; Cycle Count ; SOC [%] ; Relativ SOC[%] ; Desired Voltage [mV]; Desired Current [mA]; Cell Voltage 1 [mV] ; Cell Voltage 2 [mV] ; Max_Error [%] ; Busvoltage[mV] ; Battery Temperature [°C] ; Charger Temperature [°C] ; Batterysystem ; Case ; PLace
009550;07.02.2021;08:46:54;Normalcharge  ;04.12.2018;FEY;;LION;49;14500;7200;192;3;93;94;8400;3000;4067;4066;1;13008;23.44;24.74;29,2;BCS1388054;3;17
009550;07.02.2021;11:52:16;Stop           ;04.12.2018;FEY;;LION;49;14500;7200;224;3;99;100;8400;;4151;4149;1;13009;25.84;26.54;29,7;BCS1388054;3;17
009550;03.03.2021;08:17:46;Normalcharge  ;04.12.2018;FEY;;LION;49;14500;7200;2768;5;;;8400;3000;3052;3055;1;13031;23.14;23.24;23,6;BCS1388054;7;13
009550;03.03.2021;10:54:05;Stop          ;04.12.2018;FEY;;LION;49;14500;7200;128;5;30;31;8400;3000;3678;3630;1;12703;30.94;38.74;31,4;BCS1388054;7;13
009550;03.03.2021;10:55:49;Normalcharge  ;04.12.2018;FEY;;LION;49;14500;7200;192;5;30;32;8400;3000;3595;3595;1;13024;30.94;34.84;30,6;BCS1388054;7;13
009550;03.03.2021;17:03:24;Stop          ;04.12.2018;FEY;;LION;49;14500;7200;224;5;95;100;8400;;4163;4162;1;13025;26.64;28.24;31,4;BCS1388054;7;13
009550;04.04.2021;11:50:10;Normalcharge  ;04.12.2018;FEY;;LION;49;14500;7200;192;5;51;53;8400;3000;3676;3675;1;13001;24.94;25.84;27,8;BCS1388054;5;14
009550;04.04.2021;11:51:30;Stop          ;04.12.2018;FEY;;LION;49;14500;7200;128;5;51;53;8400;3000;3764;3717;1;12671;25.04;29.44;28,5;BCS1388054;5;14

File: 009558.txt
Serialnumber ; Date ; Time ; Action ; Date of Manufacture ; Manufacturer ; Battery Name ; Device-Chemistry ; Specification-Info ; Design-Capacity [mAh] ; Design-Voltage [mV] ; Battery Status ; Cycle Count ; SOC [%] ; Relativ SOC[%] ; Desired Voltage [mV]; Desired Current [mA]; Cell Voltage 1 [mV] ; Cell Voltage 2 [mV] ; Max_Error [%] ; Busvoltage[mV] ; Battery Temperature [°C] ; Charger Temperature [°C] ; Batterysystem ; Case ; PLace
009558;07.12.2020;04:14:17;Cycle         ;03.12.2018;FEY;;LION;49;14500;7200;16576;3;98;99;;;4145;4144;1;12988;25.74;27.44;30,3;BCS1388054;1;12
009558;08.12.2020;16:19:38;Stop          ;03.12.2018;FEY;;LION;49;14500;7200;16576;3;98;99;;;4143;4142;1;12989;27.14;28.54;31,9;BCS1388054;1;12
009558;12.01.2021;04:17:40;Charge to 90% ;03.12.2018;FEY;;LION;49;14500;7200;16576;3;97;98;;;4129;4128;1;12997;22.94;22.74;23,6;BCS1388054;6;6
009558;12.01.2021;05:00:55;Stop          ;03.12.2018;FEY;;LION;49;14500;7200;192;3;89;90;8400;3000;4051;4051;1;12993;27.44;27.04;31,2;BCS1388054;6;6
009558;12.01.2021;05:21:57;Cycle         ;03.12.2018;FEY;;LION;49;14500;7200;192;3;89;90;8400;3000;4055;4055;1;12993;27.04;26.04;30,4;BCS1388054;6;6
009558;13.01.2021;08:31:18;Stop          ;03.12.2018;FEY;;LION;49;14500;7200;224;4;96;100;8400;;4154;4153;1;12993;26.44;26.14;31,1;BCS1388054;6;6
009558;21.02.2021;13:43:49;Normalcharge  ;03.12.2018;FEY;;LION;49;14500;7200;192;5;52;54;8400;3000;3683;3683;1;13010;22.74;23.34;27,7;BCS1388054;3;10
009558;21.02.2021;20:44:52;Stop           ;03.12.2018;FEY;;LION;49;14500;7200;224;5;98;100;8400;;4153;4154;1;13004;26.54;27.64;31,2;BCS1388054;3;10

File: 009560.txt
Serialnumber ; Date ; Time ; Action ; Date of Manufacture ; Manufacturer ; Battery Name ; Device-Chemistry ; Specification-Info ; Design-Capacity [mAh] ; Design-Voltage [mV] ; Battery Status ; Cycle Count ; SOC [%] ; Relativ SOC[%] ; Desired Voltage [mV]; Desired Current [mA]; Cell Voltage 1 [mV] ; Cell Voltage 2 [mV] ; Max_Error [%] ; Busvoltage[mV] ; Battery Temperature [°C] ; Charger Temperature [°C] ; Batterysystem ; Case ; PLace
009560;10.12.2019;15:28:54;Charge to 30% ;03.12.2018;FEY;;LION;49;14500;7200;224;53;93;100;8400;;4128;4126;1;13030;22.94;23.54;27,1;BCS1388054;4;18
009560;10.12.2019;20:47:57;Stop          ;03.12.2018;FEY;;LION;49;14500;7200;192;53;29;30;8400;3000;3558;3558;1;13027;33.14;33.74;33,4;BCS1388054;4;18
009560;11.12.2019;08:48:41;Fastcharge    ;03.12.2018;FEY;;LION;49;14500;7200;192;53;29;30;8400;3000;3568;3568;1;13029;26.54;27.04;31,9;BCS1388054;4;18
009560;11.12.2019;13:42:44;Stop          ;03.12.2018;FEY;;LION;49;14500;7200;224;53;95;100;8400;;4161;4160;1;13029;29.54;29.54;31,9;BCS1388054;4;18
009560;11.12.2019;15:46:31;Charge to 10% ;03.12.2018;FEY;;LION;49;14500;7200;224;53;96;99;8400;;4152;4152;1;13028;27.24;27.34;31,4;BCS1388054;4;18
009560;11.12.2019;22:50:44;Stop          ;03.12.2018;FEY;;LION;49;14500;7200;192;55;10;10;8400;3000;3351;3353;1;13027;33.64;33.54;33,2;BCS1388054;4;18
009560;12.12.2019;08:45:03;Normalcharge  ;03.12.2018;FEY;;LION;49;14500;7200;192;55;9;10;8400;3000;3362;3363;1;13029;26.74;27.14;31,9;BCS1388054;4;18
009560;12.12.2019;16:41:48;Stop          ;03.12.2018;FEY;;LION;49;14500;7200;224;55;96;100;8400;;4162;4162;1;13029;28.94;29.24;31,5;BCS1388054;4;18
009560;13.12.2019;10:48:01;Charge to 10% ;03.12.2018;FEY;;LION;49;14500;7200;224;55;96;100;8400;;4148;4147;1;13029;26.74;27.24;32,0;BCS1388054;4;18
009560;13.12.2019;15:42:25;Stop          ;03.12.2018;FEY;;LION;49;14500;7200;192;55;35;37;8400;3000;3503;3554;1;13541;32.54;39.64;34,6;BCS1388054;4;18
009560;13.12.2019;15:42:27;Cycle         ;03.12.2018;FEY;;LION;49;14500;7200;192;55;35;37;8400;3000;3503;3554;1;13027;32.54;39.64;34,6;BCS1388054;4;18
009560;14.12.2019;22:44:28;Stop          ;03.12.2018;FEY;;LION;49;14500;7200;224;57;93;99;8400;;4151;4151;1;13029;26.84;27.14;32,0;BCS1388054;4;18
009560;16.12.2019;07:43:14;Charge to 10% ;03.12.2018;FEY;;LION;49;14500;7200;224;57;94;100;8400;;4145;4145;1;13029;26.54;26.74;31,9;BCS1388054;4;18
009560;16.12.2019;14:36:45;Stop          ;03.12.2018;FEY;;LION;49;14500;7200;192;58;10;10;8400;3000;3363;3365;1;13028;32.24;32.34;32,4;BCS1388054;4;18
009560;16.12.2019;14:44:13;Charge to 90% ;03.12.2018;FEY;;LION;49;14500;7200;192;58;10;10;8400;3000;3366;3368;1;13028;31.44;30.34;31,7;BCS1388054;4;18
009560;16.12.2019;20:50:28;Stop          ;03.12.2018;FEY;;LION;49;14500;7200;192;58;85;90;8400;3000;4062;4063;1;13030;31.24;31.74;31,6;BCS1388054;4;18
009560;17.12.2019;08:37:50;Fastcharge    ;03.12.2018;FEY;;LION;49;14500;7200;192;58;85;90;8400;3000;4049;4051;1;13028;26.54;26.94;31,6;BCS1388054;4;18
009560;17.12.2019;10:31:07;Stop          ;03.12.2018;FEY;;LION;49;14500;7200;224;58;95;100;8400;;4162;4163;1;13029;28.14;28.94;31,4;BCS1388054;4;18
009560;17.12.2019;13:38:32;Charge to 10% ;03.12.2018;FEY;;LION;49;14500;7200;224;58;95;100;8400;;4149;4150;1;13029;26.84;27.04;30,8;BCS1388054;4;18
009560;17.12.2019;20:34:29;Stop          ;03.12.2018;FEY;;LION;49;14500;7200;192;59;10;10;8400;3000;3365;3367;1;13027;33.74;33.44;34,1;BCS1388054;4;18
009560;18.12.2019;08:31:26;Fastcharge    ;03.12.2018;FEY;;LION;49;14500;7200;192;59;10;10;8400;3000;3374;3376;1;13029;26.74;27.04;31,6;BCS1388054;4;18
009560;18.12.2019;14:29:12;Stop          ;03.12.2018;FEY;;LION;49;14500;7200;224;59;95;100;8400;;4162;4163;1;13029;29.64;29.84;31,9;BCS1388054;4;18
009560;19.12.2019;08:23:58;Charge to 60% ;03.12.2018;FEY;;LION;49;14500;7200;224;59;96;100;8400;;4148;4149;1;13028;26.64;26.94;31,6;BCS1388054;4;18
009560;19.12.2019;11:30:18;Stop          ;03.12.2018;FEY;;LION;49;14500;7200;192;59;58;60;8400;3000;3765;3769;1;13027;33.84;35.64;34,6;BCS1388054;4;18
009560;19.12.2019;12:16:45;Cycle         ;03.12.2018;FEY;;LION;49;14500;7200;192;59;58;60;8400;3000;3778;3782;1;13028;29.94;29.64;32,7;BCS1388054;4;18
009560;20.12.2019;17:30:48;Stop          ;03.12.2018;FEY;;LION;49;14500;7200;224;61;94;99;8400;;4151;4151;1;13030;26.84;26.84;30,6;BCS1388054;4;18
009560;06.01.2020;06:34:50;Charge to 60% ;03.12.2018;FEY;;LION;49;14500;7200;192;61;92;98;8400;;4122;4121;1;13030;26.84;27.14;31,9;BCS1388054;4;18
009560;06.01.2020;09:30:33;Stop          ;03.12.2018;FEY;;LION;49;14500;7200;192;61;57;60;8400;3000;3772;3775;1;13029;33.04;34.04;33,7;BCS1388054;4;18
009560;06.01.2020;09:50:38;Fastcharge    ;03.12.2018;FEY;;LION;49;14500;7200;192;61;57;60;8400;3000;3781;3784;1;13029;31.14;30.34;32,7;BCS1388054;4;18
009560;06.01.2020;13:09:19;Stop          ;03.12.2018;FEY;;LION;49;14500;7200;224;61;95;100;8400;;4160;4160;1;13030;29.14;29.24;31,4;BCS1388054;4;18

File: 009569.txt
Serialnumber ; Date ; Time ; Action ; Date of Manufacture ; Manufacturer ; Battery Name ; Device-Chemistry ; Specification-Info ; Design-Capacity [mAh] ; Design-Voltage [mV] ; Battery Status ; Cycle Count ; SOC [%] ; Relativ SOC[%] ; Desired Voltage [mV]; Desired Current [mA]; Cell Voltage 1 [mV] ; Cell Voltage 2 [mV] ; Max_Error [%] ; Busvoltage[mV] ; Battery Temperature [°C] ; Charger Temperature [°C] ; Batterysystem ; Case ; PLace
009569;07.12.2020;04:14:36;Cycle         ;04.12.2018;FEY;;LION;49;14500;7200;192;1;96;97;8400;;4132;4134;1;13010;25.64;28.64;30,3;BCS1388054;6;15
009569;08.12.2020;16:20:13;Stop          ;04.12.2018;FEY;;LION;49;14500;7200;192;1;96;97;8400;;4130;4131;1;13010;27.74;30.24;31,9;BCS1388054;6;15
009569;12.01.2021;04:17:40;Charge to 90% ;04.12.2018;FEY;;LION;49;14500;7200;192;1;95;96;8400;;4118;4119;1;13003;23.14;23.94;23,6;BCS1388054;6;8
009569;12.01.2021;05:00:55;Stop          ;04.12.2018;FEY;;LION;49;14500;7200;192;1;89;90;8400;3000;4061;4062;1;12997;26.84;29.94;31,2;BCS1388054;6;8
009569;12.01.2021;05:21:57;Cycle         ;04.12.2018;FEY;;LION;49;14500;7200;192;1;89;90;8400;3000;4063;4064;1;12998;27.04;28.74;30,4;BCS1388054;6;8
009569;13.01.2021;08:31:18;Stop          ;04.12.2018;FEY;;LION;49;14500;7200;224;2;97;100;8400;;4156;4159;1;13001;27.14;28.64;31,1;BCS1388054;6;8
009569;22.02.2021;17:31:46;Normalcharge  ;04.12.2018;FEY;;LION;49;14500;7200;192;3;59;61;8400;3000;3757;3763;1;12993;26.54;27.44;31,6;BCS1388054;1;14
009569;22.02.2021;23:06:28;Stop          ;04.12.2018;FEY;;LION;49;14500;7200;224;3;97;100;8400;;4156;4157;1;12995;26.74;28.64;30,6;BCS1388054;1;14
009569;04.04.2021;11:50:33;Normalcharge  ;04.12.2018;FEY;;LION;49;14500;7200;192;3;53;55;8400;3000;3697;3698;1;13017;25.04;25.94;27,9;BCS1388054;2;6
009569;04.04.2021;11:51:48;Stop          ;04.12.2018;FEY;;LION;49;14500;7200;128;3;53;55;8400;3000;3784;3738;1;12611;25.04;28.04;28,6;BCS1388054;2;6

File: 009596.txt
Serialnumber ; Date ; Time ; Action ; Date of Manufacture ; Manufacturer ; Battery Name ; Device-Chemistry ; Specification-Info ; Design-Capacity [mAh] ; Design-Voltage [mV] ; Battery Status ; Cycle Count ; SOC [%] ; Relativ SOC[%] ; Desired Voltage [mV]; Desired Current [mA]; Cell Voltage 1 [mV] ; Cell Voltage 2 [mV] ; Max_Error [%] ; Busvoltage[mV] ; Battery Temperature [°C] ; Charger Temperature [°C] ; Batterysystem ; Case ; PLace
009596;07.12.2020;04:14:32;Cycle         ;04.12.2018;FEY;;LION;49;14500;7200;192;1;92;98;8400;;4129;4129;1;12992;25.74;27.54;30,3;BCS1388054;5;13
009596;08.12.2020;16:20:01;Stop          ;04.12.2018;FEY;;LION;49;14500;7200;192;1;93;98;8400;;4128;4128;1;12991;27.84;29.24;31,7;BCS1388054;5;13
009596;12.01.2021;04:17:36;Charge to 90% ;04.12.2018;FEY;;LION;49;14500;7200;192;1;91;97;8400;;4116;4116;1;13009;23.04;24.14;23,6;BCS1388054;5;3
009596;12.01.2021;05:15:37;Stop          ;04.12.2018;FEY;;LION;49;14500;7200;192;1;85;90;8400;3000;4060;4060;1;13002;27.14;29.44;31,6;BCS1388054;5;3
009596;12.01.2021;05:21:53;Cycle         ;04.12.2018;FEY;;LION;49;14500;7200;192;1;85;90;8400;3000;4060;4060;1;13003;27.14;29.04;30,6;BCS1388054;5;3
009596;13.01.2021;08:31:10;Stop          ;04.12.2018;FEY;;LION;49;14500;7200;224;2;96;100;8400;;4157;4157;1;13001;27.04;29.04;31,1;BCS1388054;5;3
009596;22.02.2021;17:31:46;Normalcharge  ;04.12.2018;FEY;;LION;49;14500;7200;192;3;62;65;8400;3000;3807;3807;1;12986;25.74;26.64;31,6;BCS1388054;1;12
009596;22.02.2021;23:06:28;Stop          ;04.12.2018;FEY;;LION;49;14500;7200;224;3;96;100;8400;;4154;4156;1;12988;26.24;27.04;30,6;BCS1388054;1;12