Folder: Battery_sort_V2/reader/backup_20210405/Batterieverzeichnis

Note: reader/backup_20210405/Batterieverzeichnis/009510.txt
009510;29.11.2020;04:42:29;Cycle         ;04.12.2018;FEY;;LION;49;14500;7200;224;2;98;100;8400;;4138;4138;1;13003;23.24;21.44;27,5;BCS1388054;6;14
009510;30.11.2020;09:46:20;Stop          ;04.12.2018;FEY;;LION;49;14500;7200;224;3;96;100;8400;;4154;4154;1;12997;28.04;30.14;30,7;BCS1388054;6;14
009510;07.02.2021;08:46:42;Normalcharge  ;04.12.2018;FEY;;LION;49;14500;7200;192;3;95;98;8400;;4120;4119;1;12995;23.74;26.94;29,2;BCS1388054;1;8
009510;07.02.2021;11:52:07;Stop          ;04.12.2018;FEY;;LION;49;14500;7200;192;3;95;98;8400;;4120;4120;1;12996;25.94;28.04;29,7;BCS1388054;1;8
009510;03.03.2021;08:17:08;Normalcharge  ;04.12.2018;FEY;;LION;49;14500;7200;192;3;94;97;8400;;4106;4105;1;12996;23.24;24.04;23,5;BCS1388054;1;12
009510;04.03.2021;07:53:51;Stop          ;04.12.2018;FEY;;LION;49;14500;7200;192;3;94;97;8400;;4105;4104;1;12991;26.14;27.14;31,6;BCS1388054;1;12

Note: reader/backup_20210405/Batterieverzeichnis/009550.txt
Serialnumber ; Date ; Time ; Action ; Date of Manufacture ; Manufacturer ; Battery Name ; Device-Chemistry ; Specification-Info ; Design-Capacity [mAh] ; Design-Voltage [mV] ; Battery Status ; Cycle Count ; SOC [%] ; Relativ SOC[%] ; Desired Voltage [mV]; Desired Current [mA]; Cell Voltage 1 [mV] ; Cell Voltage 2 [mV] ; Max_Error [%] ; Busvoltage[mV] ; Battery Temperature [°C] ; Charger Temperature [°C] ; Batterysystem ; Case ; PLace
009550;07.02.2021;08:46:54;Normalcharge  ;04.12.2018;FEY;;LION;49;14500;7200;192;3;93;94;8400;3000;4067;4066;1;13008;23.44;24.74;29,2;BCS1388054;3;17
009550;07.02.2021;11:52:16;Stop           ;04.12.2018;FEY;;LION;49;14500;7200;224;3;99;100;8400;;4151;4149;1;13009;25.84;26.54;29,7;BCS1388054;3;17
009550;03.03.2021;08:17:46;Normalcharge  ;04.12.2018;FEY;;LION;49;14500;7200;2768;5;;;8400;3000;3052;3055;1;13031;23.14;23.24;23,6;BCS1388054;7;13
009550;03.03.2021;10:54:05;Stop          ;04.12.2018;FEY;;LION;49;14500;7200;128;5;30;31;8400;3000;3678;3630;1;12703;30.94;38.74;31,4;BCS1388054;7;13
009550;03.03.2021;10:55:49;Normalcharge  ;04.12.2018;FEY;;LION;49;14500;7200;192;5;30;32;8400;3000;3595;3595;1;13024;30.94;34.84;30,6;BCS1388054;7;13
009550;03.03.2021;17:03:24;Stop          ;04.12.2018;FEY;;LION;49;14500;7200;224;5;95;100;8400;;4163;4162;1;13025;26.64;28.24;31,4;BCS1388054;7;13

Note: reader/backup_20210405/Batterieverzeichnis/009703.txt
009703;29.11.2020;04:36:38;Cycle         ;04.12.2018;FEY;;LION;49;14500;7200;192;2;95;98;8400;;4138;4137;1;13010;23.24;18.44;27,9;BCS1388054;4;13
009703;12.01.2021;04:16:03;Stop          ;04.12.2018;FEY;;LION;49;14500;7200;192;2;94;96;8400;;4119;4118;1;13015;23.34;21.94;23,0;BCS1388054;1;13
009703;12.01.2021;04:17:15;Charge to 90% ;04.12.2018;FEY;;LION;49;14500;7200;192;2;94;96;8400;;4118;4118;1;13015;23.34;22.44;23,5;BCS1388054;1;13
009703;12.01.2021;04:55:18;Stop          ;04.12.2018;FEY;;LION;49;14500;7200;192;2;88;90;8400;3000;4060;4059;1;13009;26.74;30.04;31,7;BCS1388054;1;13
009703;12.01.2021;05:21:33;Cycle         ;04.12.2018;FEY;;LION;49;14500;7200;192;2;88;90;8400;3000;4063;4063;1;13010;26.94;27.34;30,6;BCS1388054;1;13
009703;13.01.2021;08:18:34;Stop          ;04.12.2018;FEY;;LION;49;14500;7200;224;3;97;100;8400;;4155;4154;1;13010;26.94;27.24;30,7;BCS1388054;1;13
009703;21.02.2021;13:44:56;Normalcharge  ;04.12.2018;FEY;;LION;49;14500;7200;192;4;39;40;8400;3000;3600;3600;1;13014;23.04;23.04;27,7;BCS1388054;5;9
009703;21.02.2021;19:31:36;Stop          ;04.12.2018;FEY;;LION;49;14500;7200;224;4;97;100;8400;;4165;4166;1;13011;28.04;28.34;30,6;BCS1388054;5;9

Note: reader/backup_20210405/Batterieverzeichnis/009730.txt
Serialnumber ; Date ; Time ; Action ; Date of Manufacture ; Manufacturer ; Battery Name ; Device-Chemistry ; Specification-Info ; Design-Capacity [mAh] ; Design-Voltage [mV] ; Battery Status ; Cycle Count ; SOC [%] ; Relativ SOC[%] ; Desired Voltage [mV]; Desired Current [mA]; Cell Voltage 1 [mV] ; Cell Voltage 2 [mV] ; Max_Error [%] ; Busvoltage[mV] ; Battery Temperature [°C] ; Charger Temperature [°C] ; Batterysystem ; Case ; PLace
009730;07.02.2021;08:47:00;Normalcharge  ;04.12.2018;FEY;;LION;49;14500;7200;192;2;91;92;8400;3000;4073;4074;1;13000;23.34;25.54;29,2;BCS1388054;4;15
009730;07.02.2021;11:52:20;Stop          ;04.12.2018;FEY;;LION;49;14500;7200;224;2;99;100;8400;;4153;4154;1;13001;25.74;27.14;29,7;BCS1388054;4;15
009730;03.03.2021;08:17:21;Normalcharge  ;04.12.2018;FEY;;LION;49;14500;7200;192;2;91;94;8400;3000;4079;4080;1;13010;23.04;22.64;23,5;BCS1388054;3;4
009730;04.03.2021;07:53:39;Stop           ;04.12.2018;FEY;;LION;49;14500;7200;224;2;98;100;8400;;4149;4150;1;13004;26.34;27.14;31,5;BCS1388054;3;4

Note: reader/backup_20210405/Batterieverzeichnis/009783.txt
009783;29.11.2020;04:36:38;Cycle         ;04.12.2018;FEY;;LION;49;14500;7200;224;3;98;100;8400;;4154;4151;1;13013;22.94;22.94;27,9;BCS1388054;4;1
009783;07.02.2021;08:46:43;Normalcharge  ;04.12.2018;FEY;;LION;49;14500;7200;192;5;94;97;8400;;4101;4100;1;12993;23.54;26.44;29,2;BCS1388054;1;14
009783;07.02.2021;11:52:07;Stop          ;04.12.2018;FEY;;LION;49;14500;7200;192;5;94;97;8400;;4102;4101;1;12994;25.74;27.94;29,7;BCS1388054;1;14
009783;03.03.2021;08:17:40;Normalcharge  ;04.12.2018;FEY;;LION;49;14500;7200;192;5;68;71;8400;3000;3859;3859;1;13003;23.14;22.74;23,6;BCS1388054;6;6
009783;03.03.2021;11:56:52;Stop          ;04.12.2018;FEY;;LION;49;14500;7200;224;5;97;100;8400;;4156;4156;1;12997;27.64;27.34;31,7;BCS1388054;6;6

Note: reader/backup_20210405/Batterieverzeichnis/009796.txt
Serialnumber ; Date ; Time ; Action ; Date of Manufacture ; Manufacturer ; Battery Name ; Device-Chemistry ; Specification-Info ; Design-Capacity [mAh] ; Design-Voltage [mV] ; Battery Status ; Cycle Count ; SOC [%] ; Relativ SOC[%] ; Desired Voltage [mV]; Desired Current [mA]; Cell Voltage 1 [mV] ; Cell Voltage 2 [mV] ; Max_Error [%] ; Busvoltage[mV] ; Battery Temperature [°C] ; Charger Temperature [°C] ; Batterysystem ; Case ; PLace
009796;07.12.2020;04:14:21;Cycle         ;04.12.2018;FEY;;LION;49;14500;7200;16576;2;98;99;;;4151;4152;1;12985;25.54;28.24;30,3;BCS1388054;2;7
009796;08.12.2020;16:19:44;Stop          ;04.12.2018;FEY;;LION;49;14500;7200;16576;2;98;99;;;4148;4149;1;12985;27.74;29.94;31,9;BCS1388054;2;7
009796;07.02.2021;08:46:49;Normalcharge  ;04.12.2018;FEY;;LION;49;14500;7200;16576;2;95;96;;;4107;4107;1;12992;23.34;25.44;29,2;BCS1388054;2;13
009796;07.02.2021;11:52:12;Stop          ;04.12.2018;FEY;;LION;49;14500;7200;16576;2;95;96;;;4107;4107;1;12993;25.64;27.14;29,7;BCS1388054;2;13
009796;03.03.2021;08:17:17;Normalcharge  ;04.12.2018;FEY;;LION;49;14500;7200;16576;2;93;94;;;4088;4089;1;13014;23.04;23.14;23,5;BCS1388054;2;16
009796;04.03.2021;07:53:46;Stop          ;04.12.2018;FEY;;LION;49;14500;7200;16576;2;93;94;;;4088;4088;1;13005;26.24;27.54;31,6;BCS1388054;2;16

Note: reader/backup_20210405/Batterieverzeichnis/009800.txt
Serialnumber ; Date ; Time ; Action ; Date of Manufacture ; Manufacturer ; Battery Name ; Device-Chemistry ; Specification-Info ; Design-Capacity [mAh] ; Design-Voltage [mV] ; Battery Status ; Cycle Count ; SOC [%] ; Relativ SOC[%] ; Desired Voltage [mV]; Desired Current [mA]; Cell Voltage 1 [mV] ; Cell Voltage 2 [mV] ; Max_Error [%] ; Busvoltage[mV] ; Battery Temperature [°C] ; Charger Temperature [°C] ; Batterysystem ; Case ; PLace
009800;12.01.2021;04:17:28;Ladung auf 90% ;03.12.2018;FEY;;LION;49;14500;7200;224;4;97;99;8400;;4129;4131;1;13009;23.24;23.44;23,6;BCS1388054;3;9
009800;12.01.2021;04:57:30;Stop           ;03.12.2018;FEY;;LION;49;14500;7200;192;4;89;90;8400;3000;4035;4036;1;13006;27.14;31.64;31,5;BCS1388054;3;9
009800;12.01.2021;05:21:45;Cycle          ;03.12.2018;FEY;;LION;49;14500;7200;192;4;89;90;8400;3000;4048;4051;1;13006;27.24;28.14;30,4;BCS1388054;3;9
009800;13.01.2021;08:23:25;Stop           ;03.12.2018;FEY;;LION;49;14500;7200;224;5;98;100;8400;;4156;4157;1;13004;27.44;28.14;31,4;BCS1388054;3;9
009800;21.02.2021;13:43:19;Normalcharge  ;03.12.2018;FEY;;LION;49;14500;7200;192;5;78;79;8400;3000;3935;3935;1;13003;23.74;26.54;27,5;BCS1388054;1;3
009800;22.02.2021;17:08:49;Stop          ;03.12.2018;FEY;;LION;49;14500;7200;224;5;98;100;8400;;4148;4149;1;13004;26.24;28.24;30,0;BCS1388054;1;3

File: 001014.txt
Serialnumber ; Date ; Time ; Action ; Date of Manufacture ; Manufacturer ; Battery Name ; Device-Chemistry ; Specification-Info ; Design-Capacity [mAh] ; Design-Voltage [mV] ; Battery Status ; Cycle Count ; SOC [%] ; Relativ SOC[%] ; Desired Voltage [mV]; Desired Current [mA]; Cell Voltage 1 [mV] ; Cell Voltage 2 [mV] ; Max_Error [%] ; Busvoltage[mV] ; Battery Temperature [°C] ; Charger Temperature [°C] ; Batterysystem ; Case ; PLace
001014;10.12.2019;15:29:09;Charge to 30% ;28.11.2017;FEY;;LION;49;14500;7200;224;30;91;99;8400;;4120;4119;1;12994;22.54;24.04;27,1;BCS1388054;6;16
001014;10.12.2019;20:46:41;Stop          ;28.11.2017;FEY;;LION;49;14500;7200;192;31;28;30;8400;3000;3559;3556;1;12992;33.24;32.54;33,6;BCS1388054;6;16
001014;11.12.2019;08:49:03;Fastcharge    ;28.11.2017;FEY;;LION;49;14500;7200;192;31;28;30;8400;3000;3564;3562;1;12992;26.34;27.04;31,9;BCS1388054;6;16
001014;11.12.2019;13:39:30;Stop          ;28.11.2017;FEY;;LION;49;14500;7200;224;31;93;100;8400;;4161;4161;1;12992;30.44;29.24;32,5;BCS1388054;6;16
001014;11.12.2019;15:46:47;Charge to 10% ;28.11.2017;FEY;;LION;49;14500;7200;224;31;94;100;8400;;4154;4154;1;12992;27.24;27.24;31,4;BCS1388054;6;16
001014;11.12.2019;22:52:10;Stop          ;28.11.2017;FEY;;LION;49;14500;7200;192;32;10;10;8400;3000;3357;3355;1;12991;33.84;32.34;33,0;BCS1388054;6;16
001014;12.12.2019;08:45:18;Normalcharge  ;28.11.2017;FEY;;LION;49;14500;7200;192;32;9;10;8400;3000;3364;3362;1;12992;26.44;27.14;31,7;BCS1388054;6;16
001014;12.12.2019;16:41:29;Stop          ;28.11.2017;FEY;;LION;49;14500;7200;224;32;94;100;8400;;4159;4158;1;12992;29.34;28.64;31,5;BCS1388054;6;16
001014;13.12.2019;10:48:09;Charge to 10% ;28.11.2017;FEY;;LION;49;14500;7200;224;32;94;100;8400;;4149;4149;1;12992;26.54;27.24;32,0;BCS1388054;6;16
001014;13.12.2019;13:51:54;Stop          ;28.11.2017;FEY;;LION;49;14500;7200;192;33;55;59;8400;3000;3663;3714;1;13491;34.64;38.54;36,1;BCS1388054;6;16
001014;16.12.2019;07:43:20;Charge to 10% ;28.11.2017;FEY;;LION;49;14500;7200;192;33;57;61;8400;3000;3765;3764;1;12995;23.04;27.64;31,9;BCS1388054;5;13
001014;16.12.2019;14:34:29;Stop          ;28.11.2017;FEY;;LION;49;14500;7200;192;34;9;10;8400;3000;3356;3354;1;12996;31.44;33.64;32,5;BCS1388054;5;13
001014;16.12.2019;14:44:17;Charge to 90% ;28.11.2017;FEY;;LION;49;14500;7200;192;34;9;10;8400;3000;3357;3355;1;12995;31.04;31.54;31,9;BCS1388054;5;13
001014;16.12.2019;20:48:55;Stop          ;28.11.2017;FEY;;LION;49;14500;7200;192;34;83;90;8400;3000;4034;4033;1;12996;32.44;33.34;31,9;BCS1388054;5;13
001014;17.12.2019;08:37:54;Fastcharge    ;28.11.2017;FEY;;LION;49;14500;7200;192;34;83;90;8400;3000;4026;4025;1;12995;26.74;28.04;31,6;BCS1388054;5;13
001014;17.12.2019;10:33:46;Stop          ;28.11.2017;FEY;;LION;49;14500;7200;224;34;93;100;8400;;4163;4161;1;12996;28.74;30.84;31,1;BCS1388054;5;13
001014;17.12.2019;10:33:46;Stop          ;28.11.2017;FEY;;LION;49;14500;7200;224;34;93;100;8400;;4163;4161;1;12996;28.74;30.84;31,1;BCS1388054;5;13
001014;17.12.2019;13:38:36;Charge to 10% ;28.11.2017;FEY;;LION;49;14500;7200;224;34;93;100;8400;;4151;4149;1;12995;27.04;28.24;30,8;BCS1388054;5;13
001014;17.12.2019;20:33:18;Stop          ;28.11.2017;FEY;;LION;49;14500;7200;192;35;10;10;8400;3000;3354;3352;1;12995;34.94;35.74;34,5;BCS1388054;5;13
001014;18.12.2019;08:31:30;Fastcharge    ;28.11.2017;FEY;;LION;49;14500;7200;192;35;9;10;8400;3000;3364;3361;1;12995;26.84;28.34;31,6;BCS1388054;5;13
001014;18.12.2019;14:29:27;Stop          ;28.11.2017;FEY;;LION;49;14500;7200;224;35;91;100;8400;;4160;4156;1;12996;30.74;31.14;31,7;BCS1388054;5;13
001014;19.12.2019;08:24:02;Charge to 60% ;28.11.2017;FEY;;LION;49;14500;7200;224;35;92;100;8400;;4149;4146;1;12995;26.74;28.14;31,5;BCS1388054;5;13
001014;19.12.2019;11:31:09;Stop          ;28.11.2017;FEY;;LION;49;14500;7200;192;35;56;60;8400;3000;3772;3767;1;12996;34.34;35.64;34,4;BCS1388054;5;13
001014;19.12.2019;12:16:49;Cycle         ;28.11.2017;FEY;;LION;49;14500;7200;192;35;56;60;8400;3000;3778;3774;1;12996;30.94;30.74;32,7;BCS1388054;5;13
001014;20.12.2019;17:27:50;Stop          ;28.11.2017;FEY;;LION;49;14500;7200;224;36;92;100;8400;;4153;4151;1;12995;27.24;28.34;31,0;BCS1388054;5;13
001014;06.01.2020;06:34:55;Charge to 60% ;28.11.2017;FEY;;LION;49;14500;7200;192;36;91;98;8400;;4124;4122;1;12996;27.14;28.44;31,9;BCS1388054;5;13
001014;06.01.2020;09:30:26;Stop          ;28.11.2017;FEY;;LION;49;14500;7200;192;37;56;60;8400;3000;3770;3767;1;12996;33.64;35.24;33,9;BCS1388054;5;13
001014;06.01.2020;09:50:42;Fastcharge    ;28.11.2017;FEY;;LION;49;14500;7200;192;37;56;60;8400;3000;3776;3774;1;12996;32.04;31.44;32,7;BCS1388054;5;13
001014;06.01.2020;13:09:56;Stop          ;28.11.2017;FEY;;LION;49;14500;7200;224;37;93;100;8400;;4158;4157;1;12996;30.14;30.54;31,4;BCS1388054;5;13

File: 001079.txt
Serialnumber ; Date ; Time ; Action ; Date of Manufacture ; Manufacturer ; Battery Name ; Device-Chemistry ; Specification-Info ; Design-Capacity [mAh] ; Design-Voltage [mV] ; Battery Status ; Cycle Count ; SOC [%] ; Relativ SOC[%] ; Desired Voltage [mV]; Desired Current [mA]; Cell Voltage 1 [mV] ; Cell Voltage 2 [mV] ; Max_Error [%] ; Busvoltage[mV] ; Battery Temperature [°C] ; Charger Temperature [°C] ; Batterysystem ; Case ; PLace
001079;10.12.2019;15:29:15;Charge to 30% ;15.02.2018;FEY;;LION;49;14500;7200;224;23;93;99;8400;;4123;4123;1;13032;22.34;24.84;27,1;BCS1388054;7;1
001079;10.12.2019;20:46:56;Stop          ;15.02.2018;FEY;;LION;49;14500;7200;192;23;29;30;8400;3000;3557;3557;1;13030;31.54;32.54;33,5;BCS1388054;7;1
001079;11.12.2019;08:49:12;Fastcharge    ;15.02.2018;FEY;;LION;49;14500;7200;192;23;29;30;8400;3000;3567;3567;1;13032;25.74;28.14;31,9;BCS1388054;7;1
001079;11.12.2019;13:38:42;Stop          ;15.02.2018;FEY;;LION;49;14500;7200;224;23;95;100;8400;;4163;4162;1;13031;28.24;30.24;32,7;BCS1388054;7;1
001079;11.12.2019;15:46:56;Charge to 10% ;15.02.2018;FEY;;LION;49;14500;7200;224;23;96;100;8400;;4154;4154;1;13032;26.34;28.54;31,2;BCS1388054;7;1
001079;11.12.2019;22:51:50;Stop          ;15.02.2018;FEY;;LION;49;14500;7200;192;25;10;10;8400;3000;3353;3353;1;13030;32.04;32.34;33,0;BCS1388054;7;1
001079;12.12.2019;08:45:27;Normalcharge  ;15.02.2018;FEY;;LION;49;14500;7200;192;25;9;10;8400;3000;3363;3363;1;13032;25.94;28.34;31,7;BCS1388054;7;1
001079;12.12.2019;16:41:08;Stop          ;15.02.2018;FEY;;LION;49;14500;7200;224;25;96;100;8400;;4161;4161;1;13031;27.84;29.54;31,6;BCS1388054;7;1
001079;13.12.2019;10:48:13;Charge to 10% ;15.02.2018;FEY;;LION;49;14500;7200;224;25;96;100;8400;;4150;4150;1;13032;25.94;28.44;32,0;BCS1388054;7;1
001079;13.12.2019;13:48:48;Stop          ;15.02.2018;FEY;;LION;49;14500;7200;192;25;58;61;8400;3000;3686;3735;1;13518;32.84;39.24;36,8;BCS1388054;7;1
001079;16.12.2019;07:43:34;Charge to 10% ;15.02.2018;FEY;;LION;49;14500;7200;192;25;61;63;8400;3000;3788;3788;1;13037;22.74;25.94;31,7;BCS1388054;7;5
001079;16.12.2019;11:52:34;Stop          ;15.02.2018;FEY;;LION;49;14500;7200;192;26;10;10;8400;3000;3342;3342;1;13035;31.74;31.44;34,7;BCS1388054;7;5
001079;16.12.2019;14:44:25;Charge to 90% ;15.02.2018;FEY;;LION;49;14500;7200;192;26;9;10;8400;3000;3351;3351;1;13037;28.24;28.74;31,7;BCS1388054;7;5
001079;16.12.2019;20:53:58;Stop          ;15.02.2018;FEY;;LION;49;14500;7200;192;26;85;90;8400;3000;4032;4032;1;13036;30.24;29.64;32,1;BCS1388054;7;5
001079;17.12.2019;08:38:01;Fastcharge    ;15.02.2018;FEY;;LION;49;14500;7200;192;26;85;90;8400;3000;4022;4022;1;13037;25.74;27.44;31,6;BCS1388054;7;5
001079;17.12.2019;10:36:25;Stop          ;15.02.2018;FEY;;LION;49;14500;7200;224;26;95;100;8400;;4162;4161;1;13036;27.14;28.24;31,5;BCS1388054;7;5
001079;17.12.2019;13:38:44;Charge to 10% ;15.02.2018;FEY;;LION;49;14500;7200;224;26;95;100;8400;;4152;4152;1;13037;26.04;27.44;30,8;BCS1388054;7;5
001079;17.12.2019;20:42:03;Stop          ;15.02.2018;FEY;;LION;49;14500;7200;192;27;10;10;8400;3000;3352;3351;1;13036;32.24;30.64;32,6;BCS1388054;7;5
001079;18.12.2019;08:31:43;Fastcharge    ;15.02.2018;FEY;;LION;49;14500;7200;192;27;9;9;8400;3000;3362;3362;1;13037;25.94;27.34;31,6;BCS1388054;7;5
001079;18.12.2019;14:30:48;Stop          ;15.02.2018;FEY;;LION;49;14500;7200;224;27;94;100;8400;;4163;4162;1;13037;28.54;28.64;31,6;BCS1388054;7;5
001079;19.12.2019;08:24:17;Charge to 60% ;15.02.2018;FEY;;LION;49;14500;7200;224;27;95;100;8400;;4150;4150;1;13037;25.84;27.44;31,6;BCS1388054;7;5
001079;19.12.2019;11:28:26;Stop          ;15.02.2018;FEY;;LION;49;14500;7200;192;27;57;60;8400;3000;3765;3765;1;13034;32.34;32.44;35,1;BCS1388054;7;5
001079;19.12.2019;12:16:57;Cycle         ;15.02.2018;FEY;;LION;49;14500;7200;192;27;57;60;8400;3000;3780;3781;1;13036;28.94;28.94;32,7;BCS1388054;7;5
001079;20.12.2019;17:22:28;Stop          ;15.02.2018;FEY;;LION;49;14500;7200;224;29;93;99;8400;;4153;4153;1;13037;26.04;27.64;31,9;BCS1388054;7;5
001079;06.01.2020;06:35:02;Charge to 60% ;15.02.2018;FEY;;LION;49;14500;7200;192;29;92;98;8400;;4123;4123;1;13038;25.94;27.44;31,9;BCS1388054;7;5
001079;06.01.2020;09:29:52;Stop          ;15.02.2018;FEY;;LION;49;14500;7200;192;29;57;60;8400;3000;3765;3766;1;13036;31.54;31.34;34,0;BCS1388054;7;5
001079;06.01.2020;09:50:50;Fastcharge    ;15.02.2018;FEY;;LION;49;14500;7200;192;29;57;60;8400;3000;3777;3777;1;13038;29.94;29.54;32,7;BCS1388054;7;5
001079;06.01.2020;13:05:11;Stop          ;15.02.2018;FEY;;LION;49;14500;7200;224;29;94;100;8400;;4160;4160;1;13037;28.14;28.64;32,4;BCS1388054;7;5

File: 007640.txt
Serialnumber ; Date ; Time ; Action ; Date of Manufacture ; Manufacturer ; Battery Name ; Device-Chemistry ; Specification-Info ; Design-Capacity [mAh] ; Design-Voltage [mV] ; Battery Status ; Cycle Count ; SOC [%] ; Relativ SOC[%] ; Desired Voltage [mV]; Desired Current [mA]; Cell Voltage 1 [mV] ; Cell Voltage 2 [mV] ; Max_Error [%] ; Busvoltage[mV] ; Battery Temperature [°C] ; Charger Temperature [°C] ; Batterysystem ; Case ; PLace
007640;13.12.2019;13:53:33;Fastcharge    ;19.10.2017;FEY;;LION;49;14500;7200;192;8;87;93;8400;3000;4049;4050;1;13010;22.44;34.14;35,8;BCS1388054;7;9
007640;13.12.2019;13:55:00;Stop          ;19.10.2017;FEY;;LION;49;14500;7200;128;8;87;93;8400;3000;4121;4091;1;12745;22.84;34.84;36,1;BCS1388054;7;9
007640;13.12.2019;13:55:04;Charge to 10% ;19.10.2017;FEY;;LION;49;14500;7200;128;8;87;93;8400;3000;4124;4093;1;13009;22.84;34.84;36,1;BCS1388054;7;9
007640;13.12.2019;13:55:27;Stop          ;19.10.2017;FEY;;LION;49;14500;7200;128;8;87;93;8400;3000;4058;4059;1;13381;22.94;33.64;36,1;BCS1388054;7;9
007640;13.12.2019;13:55:29;Fastcharge    ;19.10.2017;FEY;;LION;49;14500;7200;192;8;87;93;8400;3000;4034;4047;1;13406;22.94;33.64;36,1;BCS1388054;7;9
007640;13.12.2019;13:55:29;Stop          ;19.10.2017;FEY;;LION;49;14500;7200;192;8;87;93;8400;3000;4034;4047;1;13406;22.94;33.64;36,1;BCS1388054;7;9
007640;13.12.2019;13:55:33;Normalcharge  ;19.10.2017;FEY;;LION;49;14500;7200;192;8;87;93;8400;3000;4034;4047;1;13018;22.94;33.64;36,1;BCS1388054;7;9
007640;13.12.2019;13:55:39;Fastcharge    ;19.10.2017;FEY;;LION;49;14500;7200;192;8;87;93;8400;3000;4053;4054;1;12993;22.94;33.74;36,1;BCS1388054;7;9
007640;13.12.2019;13:55:39;Stop          ;19.10.2017;FEY;;LION;49;14500;7200;192;8;87;93;8400;3000;4053;4054;1;12993;22.94;33.74;36,1;BCS1388054;7;9
007640;13.12.2019;13:56:34;Stop          ;19.10.2017;FEY;;LION;49;14500;7200;128;8;87;93;8400;3000;4120;4091;1;12725;23.14;34.34;36,2;BCS1388054;7;9
007640;13.12.2019;13:56:38;Charge to 95% ;19.10.2017;FEY;;LION;49;14500;7200;128;8;87;93;8400;3000;4123;4093;1;13009;23.14;34.34;36,2;BCS1388054;7;9
007640;13.12.2019;13:56:40;Stop          ;19.10.2017;FEY;;LION;49;14500;7200;128;8;87;93;8400;3000;4062;4066;1;13010;23.24;34.24;36,2;BCS1388054;7;9
007640;13.12.2019;13:56:48;Charge to 90% ;19.10.2017;FEY;;LION;49;14500;7200;128;8;87;93;8400;3000;4062;4066;1;13010;23.24;33.94;36,2;BCS1388054;7;9
007640;13.12.2019;15:42:54;Stop          ;19.10.2017;FEY;;LION;49;14500;7200;192;8;85;90;8400;3000;4022;4023;1;12959;29.34;31.04;34,5;BCS1388054;7;9
007640;13.12.2019;15:42:59;Fastcharge    ;19.10.2017;FEY;;LION;49;14500;7200;192;8;85;90;8400;3000;4022;4023;1;13012;29.34;30.94;34,4;BCS1388054;7;9
007640;13.12.2019;21:04:43;Stop          ;19.10.2017;FEY;;LION;49;14500;7200;224;8;95;100;8400;;4152;4152;1;13014;27.44;28.04;31,7;BCS1388054;7;9

File: 009525.txt
Serialnumber ; Date ; Time ; Action ; Date of Manufacture ; Manufacturer ; Battery Name ; Device-Chemistry ; Specification-Info ; Design-Capacity [mAh] ; Design-Voltage [mV] ; Battery Status ; Cycle Count ; SOC [%] ; Relativ SOC[%] ; Desired Voltage [mV]; Desired Current [mA]; Cell Voltage 1 [mV] ; Cell Voltage 2 [mV] ; Max_Error [%] ; Busvoltage[mV] ; Battery Temperature [°C] ; Charger Temperature [°C] ; Batterysystem ; Case ; PLace
009525;10.12.2019;15:29:01;Charge to 30% ;04.12.2018;FEY;;LION;49;14500;7200;224;43;94;100;8400;;4132;4131;1;13005;22.64;23.94;27,1;BCS1388054;5;10
009525;10.12.2019;20:48:54;Stop          ;04.12.2018;FEY;;LION;49;14500;7200;192;44;29;30;8400;3000;3558;3556;1;13002;33.74;32.54;33,1;BCS1388054;5;10
009525;11.12.2019;08:48:53;Fastcharge    ;04.12.2018;FEY;;LION;49;14500;7200;192;44;29;30;8400;3000;3568;3566;1;13004;26.64;27.34;31,9;BCS1388054;5;10
009525;11.12.2019;13:40:11;Stop          ;04.12.2018;FEY;;LION;49;14500;7200;224;44;95;100;8400;;4164;4165;1;13003;30.54;29.94;32,4;BCS1388054;5;10
009525;11.12.2019;15:46:40;Charge to 10% ;04.12.2018;FEY;;LION;49;14500;7200;224;44;97;100;8400;;4155;4155;1;13003;27.44;27.64;31,4;BCS1388054;5;10
009525;11.12.2019;22:49:07;Stop          ;04.12.2018;FEY;;LION;49;14500;7200;192;45;10;10;8400;3000;3355;3352;1;13002;34.64;33.34;33,5;BCS1388054;5;10
009525;12.12.2019;08:45:10;Normalcharge  ;04.12.2018;FEY;;LION;49;14500;7200;192;45;9;10;8400;3000;3365;3364;1;13003;26.84;27.44;31,7;BCS1388054;5;10
009525;12.12.2019;16:41:20;Stop          ;04.12.2018;FEY;;LION;49;14500;7200;224;45;97;100;8400;;4162;4161;1;13003;29.64;28.94;31,6;BCS1388054;5;10
009525;13.12.2019;10:48:05;Charge to 10% ;04.12.2018;FEY;;LION;49;14500;7200;224;45;97;100;8400;;4150;4149;1;13004;26.84;27.54;32,0;BCS1388054;5;10
009525;13.12.2019;15:40:55;Stop          ;04.12.2018;FEY;;LION;49;14500;7200;192;46;36;37;8400;3000;3505;3555;1;13513;33.04;37.14;34,6;BCS1388054;5;10
009525;13.12.2019;15:41:42;Cycle         ;04.12.2018;FEY;;LION;49;14500;7200;192;46;36;37;8400;3000;3587;3585;1;13003;32.94;34.84;34,5;BCS1388054;5;10
009525;14.12.2019;22:39:35;Stop          ;04.12.2018;FEY;;LION;49;14500;7200;224;47;94;100;8400;;4153;4150;1;13003;26.94;27.34;31,7;BCS1388054;5;10
009525;16.12.2019;07:43:20;Charge to 10% ;04.12.2018;FEY;;LION;49;14500;7200;224;47;95;100;8400;;4147;4144;1;13004;26.64;26.64;31,9;BCS1388054;5;10
009525;16.12.2019;14:34:29;Stop          ;04.12.2018;FEY;;LION;49;14500;7200;192;48;10;10;8400;3000;3359;3354;1;13003;32.94;33.34;32,5;BCS1388054;5;10
009525;16.12.2019;14:44:17;Charge to 90% ;04.12.2018;FEY;;LION;49;14500;7200;192;48;10;10;8400;3000;3367;3362;1;13002;32.14;29.94;31,9;BCS1388054;5;10
009525;16.12.2019;20:48:55;Stop          ;04.12.2018;FEY;;LION;49;14500;7200;192;48;85;90;8400;3000;4061;4060;1;13004;32.44;32.14;31,9;BCS1388054;5;10
009525;17.12.2019;08:37:53;Fastcharge    ;04.12.2018;FEY;;LION;49;14500;7200;192;48;85;90;8400;3000;4046;4044;1;13003;26.74;27.34;31,6;BCS1388054;5;10
009525;17.12.2019;10:33:46;Stop          ;04.12.2018;FEY;;LION;49;14500;7200;224;48;95;100;8400;;4160;4160;1;13002;28.44;28.34;31,1;BCS1388054;5;10
009525;17.12.2019;10:33:46;Stop          ;04.12.2018;FEY;;LION;49;14500;7200;224;48;95;100;8400;;4160;4160;1;13002;28.44;28.34;31,1;BCS1388054;5;10
009525;17.12.2019;13:38:36;Charge to 10% ;04.12.2018;FEY;;LION;49;14500;7200;224;48;95;100;8400;;4151;4151;1;13003;27.04;27.24;30,8;BCS1388054;5;10
009525;17.12.2019;20:33:18;Stop          ;04.12.2018;FEY;;LION;49;14500;7200;192;49;10;10;8400;3000;3358;3355;1;13002;34.74;34.34;34,5;BCS1388054;5;10
009525;18.12.2019;08:31:30;Fastcharge    ;04.12.2018;FEY;;LION;49;14500;7200;192;49;9;10;8400;3000;3372;3369;1;13004;26.84;27.34;31,6;BCS1388054;5;10
009525;18.12.2019;14:29:27;Stop          ;04.12.2018;FEY;;LION;49;14500;7200;224;49;95;100;8400;;4162;4164;1;13003;30.64;29.44;31,7;BCS1388054;5;10
009525;19.12.2019;08:24:02;Charge to 60% ;04.12.2018;FEY;;LION;49;14500;7200;224;49;96;100;8400;;4150;4152;1;13002;26.74;27.34;31,5;BCS1388054;5;10
009525;19.12.2019;11:31:09;Stop          ;04.12.2018;FEY;;LION;49;14500;7200;192;50;58;60;8400;3000;3764;3761;1;13002;34.24;33.94;34,4;BCS1388054;5;10
009525;19.12.2019;12:16:49;Cycle         ;04.12.2018;FEY;;LION;49;14500;7200;192;50;58;60;8400;3000;3777;3774;1;13003;30.94;29.64;32,7;BCS1388054;5;10
009525;20.12.2019;17:27:50;Stop          ;04.12.2018;FEY;;LION;49;14500;7200;224;51;94;100;8400;;4153;4151;1;13005;27.14;27.24;31,0;BCS1388054;5;10
009525;06.01.2020;06:34:55;Charge to 60% ;04.12.2018;FEY;;LION;49;14500;7200;224;51;93;99;8400;;4123;4121;1;13003;27.04;27.44;31,9;BCS1388054;5;10
009525;06.01.2020;09:30:26;Stop          ;04.12.2018;FEY;;LION;49;14500;7200;192;52;57;60;8400;3000;3760;3756;1;13003;33.44;34.24;33,9;BCS1388054;5;10
009525;06.01.2020;09:50:42;Fastcharge    ;04.12.2018;FEY;;LION;49;14500;7200;192;52;57;60;8400;3000;3774;3768;1;13005;32.04;30.34;32,7;BCS1388054;5;10
009525;06.01.2020;13:09:56;Stop          ;04.12.2018;FEY;;LION;49;14500;7200;224;52;95;100;8400;;4160;4160;1;13005;30.04;28.84;31,4;BCS1388054;5;10