Folder: Battery_sort_V2/reader/backup_20210405/Batterieverzeichnis_new (part 2)

File: 009618.txt
Serialnumber ; Date ; Time ; Action ; Date of Manufacture ; Manufacturer ; Battery Name ; Device-Chemistry ; Specification-Info ; Design-Capacity [mAh] ; Design-Voltage [mV] ; Battery Status ; Cycle Count ; SOC [%] ; Relativ SOC[%] ; Desired Voltage [mV]; Desired Current [mA]; Cell Voltage 1 [mV] ; Cell Voltage 2 [mV] ; Max_Error [%] ; Busvoltage[mV] ; Battery Temperature [°C] ; Charger Temperature [°C] ; Batterysystem ; Case ; PLace
009618;10.12.2019;15:28:33;Charge to 30% ;04.12.2018;FEY;;LION;49;14500;7200;224;41;93;99;8400;;4112;4112;1;12995;23.64;26.14;27,1;BCS1388054;1;2
009618;10.12.2019;20:42:16;Stop          ;04.12.2018;FEY;;LION;49;14500;7200;192;42;29;30;8400;3000;3556;3557;1;12993;32.64;34.34;34,1;BCS1388054;1;2
009618;11.12.2019;08:48:18;Fastcharge    ;04.12.2018;FEY;;LION;49;14500;7200;192;42;29;30;8400;3000;3567;3568;1;12994;26.34;28.74;31,9;BCS1388054;1;2
009618;11.12.2019;13:40:21;Stop          ;04.12.2018;FEY;;LION;49;14500;7200;224;42;95;100;8400;;4163;4164;1;12994;29.64;30.84;32,4;BCS1388054;1;2
009618;11.12.2019;15:45:57;Charge to 30% ;04.12.2018;FEY;;LION;49;14500;7200;224;42;96;100;8400;;4154;4155;1;12993;27.14;28.94;31,5;BCS1388054;1;2
009618;11.12.2019;15:46:00;Stop          ;04.12.2018;FEY;;LION;49;14500;7200;224;42;96;100;8400;;4154;4155;1;12994;27.14;28.94;31,5;BCS1388054;1;2
009618;11.12.2019;15:46:13;Charge to 10% ;04.12.2018;FEY;;LION;49;14500;7200;224;42;96;100;8400;;4154;4155;1;12994;27.14;28.84;31,5;BCS1388054;1;2
009618;11.12.2019;22:50:20;Stop          ;04.12.2018;FEY;;LION;49;14500;7200;192;44;10;10;8400;3000;3351;3353;1;12994;33.24;33.34;33,4;BCS1388054;1;2
009618;12.12.2019;08:44:40;Normalcharge  ;04.12.2018;FEY;;LION;49;14500;7200;192;44;9;10;8400;3000;3362;3364;1;12994;26.54;28.94;31,9;BCS1388054;1;2
009618;12.12.2019;16:39:22;Stop          ;04.12.2018;FEY;;LION;49;14500;7200;224;44;96;100;8400;;4161;4161;1;12994;28.94;30.24;31,7;BCS1388054;1;2
009618;13.12.2019;10:47:47;Charge to 10% ;04.12.2018;FEY;;LION;49;14500;7200;224;44;96;100;8400;;4148;4149;1;12995;26.64;28.94;32,0;BCS1388054;1;2
009618;13.12.2019;15:41:58;Stop          ;04.12.2018;FEY;;LION;49;14500;7200;192;44;35;36;8400;3000;3500;3553;1;13612;32.44;38.54;34,6;BCS1388054;1;2
009618;13.12.2019;15:42:01;Cycle         ;04.12.2018;FEY;;LION;49;14500;7200;192;44;35;36;8400;3000;3500;3553;1;12993;32.44;38.54;34,6;BCS1388054;1;2
009618;14.12.2019;22:41:25;Stop          ;04.12.2018;FEY;;LION;49;14500;7200;224;46;94;99;8400;;4153;4155;1;12995;26.64;28.74;31,9;BCS1388054;1;2
009618;16.12.2019;07:43:03;Charge to 10% ;04.12.2018;FEY;;LION;49;14500;7200;224;46;94;100;8400;;4146;4149;1;12995;26.34;28.44;31,9;BCS1388054;1;2
009618;16.12.2019;14:36:13;Stop          ;04.12.2018;FEY;;LION;49;14500;7200;192;47;10;10;8400;3000;3363;3366;1;12993;32.24;32.54;32,4;BCS1388054;1;2
009618;16.12.2019;14:44:00;Charge to 90% ;04.12.2018;FEY;;LION;49;14500;7200;192;47;10;10;8400;3000;3365;3368;1;12994;31.84;31.34;31,7;BCS1388054;1;2
009618;16.12.2019;20:50:03;Stop          ;04.12.2018;FEY;;LION;49;14500;7200;192;47;85;90;8400;3000;4061;4063;1;12995;31.44;31.84;31,7;BCS1388054;1;2
009618;17.12.2019;08:37:36;Fastcharge    ;04.12.2018;FEY;;LION;49;14500;7200;192;47;85;90;8400;3000;4049;4050;1;12995;26.44;28.64;31,6;BCS1388054;1;2
009618;17.12.2019;10:31:11;Stop          ;04.12.2018;FEY;;LION;49;14500;7200;224;47;95;100;8400;;4160;4160;1;12995;27.74;29.54;31,4;BCS1388054;1;2
009618;17.12.2019;13:38:19;Charge to 10% ;04.12.2018;FEY;;LION;49;14500;7200;224;47;95;100;8400;;4150;4150;1;12994;26.74;28.54;30,8;BCS1388054;1;2
009618;17.12.2019;20:33:50;Stop          ;04.12.2018;FEY;;LION;49;14500;7200;192;48;10;10;8400;3000;3364;3365;1;12994;33.24;33.54;34,2;BCS1388054;1;2
009618;18.12.2019;08:31:14;Fastcharge    ;04.12.2018;FEY;;LION;49;14500;7200;192;48;10;11;8400;3000;3374;3375;1;12994;26.54;28.64;31,6;BCS1388054;1;2
009618;18.12.2019;14:28:33;Stop          ;04.12.2018;FEY;;LION;49;14500;7200;224;48;95;100;8400;;4162;4160;1;12994;29.74;30.44;31,9;BCS1388054;1;2
009618;19.12.2019;08:23:45;Charge to 60% ;04.12.2018;FEY;;LION;49;14500;7200;224;48;96;100;8400;;4150;4148;1;12995;26.44;28.54;31,5;BCS1388054;1;2
009618;19.12.2019;11:29:32;Stop          ;04.12.2018;FEY;;LION;49;14500;7200;192;48;58;60;8400;3000;3760;3760;1;12995;33.14;35.54;34,9;BCS1388054;1;2
009618;19.12.2019;12:16:33;Cycle         ;04.12.2018;FEY;;LION;49;14500;7200;192;48;58;60;8400;3000;3775;3775;1;12993;30.14;30.44;32,7;BCS1388054;1;2
009618;20.12.2019;17:26:19;Stop          ;04.12.2018;FEY;;LION;49;14500;7200;224;50;94;100;8400;;4152;4153;1;12995;26.64;28.54;31,2;BCS1388054;1;2
009618;06.01.2020;06:34:38;Charge to 60% ;04.12.2018;FEY;;LION;49;14500;7200;192;50;92;98;8400;;4122;4123;1;12996;26.44;28.54;31,9;BCS1388054;1;2
009618;06.01.2020;09:30:29;Stop          ;04.12.2018;FEY;;LION;49;14500;7200;192;50;57;60;8400;3000;3771;3773;1;12994;32.24;33.64;33,9;BCS1388054;1;2
009618;06.01.2020;09:50:27;Fastcharge    ;04.12.2018;FEY;;LION;49;14500;7200;192;50;57;60;8400;3000;3779;3782;1;12996;31.04;30.94;32,6;BCS1388054;1;2
009618;06.01.2020;13:07:36;Stop          ;04.12.2018;FEY;;LION;49;14500;7200;224;50;95;100;8400;;4160;4161;1;12995;29.14;30.24;31,7;BCS1388054;1;2

File: 009649.txt
Serialnumber ; Date ; Time ; Action ; Date of Manufacture ; Manufacturer ; Battery Name ; Device-Chemistry ; Specification-Info ; Design-Capacity [mAh] ; Design-Voltage [mV] ; Battery Status ; Cycle Count ; SOC [%] ; Relativ SOC[%] ; Desired Voltage [mV]; Desired Current [mA]; Cell Voltage 1 [mV] ; Cell Voltage 2 [mV] ; Max_Error [%] ; Busvoltage[mV] ; Battery Temperature [°C] ; Charger Temperature [°C] ; Batterysystem ; Case ; PLace
009649;07.12.2020;04:14:40;Cycle         ;04.12.2018;FEY;;LION;49;14500;7200;192;2;97;97;8400;;4118;4118;1;13026;25.74;28.24;30,3;BCS1388054;7;1
009649;08.12.2020;16:20:20;Stop          ;04.12.2018;FEY;;LION;49;14500;7200;192;2;97;97;8400;;4116;4117;1;13026;27.74;29.64;31,9;BCS1388054;7;1
009649;12.01.2021;04:17:33;Charge to 90% ;04.12.2018;FEY;;LION;49;14500;7200;192;2;96;96;8400;;4106;4106;1;13007;23.24;24.14;23,6;BCS1388054;4;7
009649;12.01.2021;04:57:16;Stop          ;04.12.2018;FEY;;LION;49;14500;7200;192;2;90;90;8400;3000;4050;4051;1;13002;27.14;30.44;31,6;BCS1388054;4;7
009649;12.01.2021;05:21:49;Cycle         ;04.12.2018;FEY;;LION;49;14500;7200;192;2;90;90;8400;3000;4053;4054;1;13003;27.34;28.94;30,4;BCS1388054;4;7
009649;13.01.2021;08:19:19;Stop          ;04.12.2018;FEY;;LION;49;14500;7200;224;4;98;100;8400;;4156;4156;1;13005;27.54;28.84;30,7;BCS1388054;4;7
009649;03.03.2021;08:17:35;Normalcharge  ;04.12.2018;FEY;;LION;49;14500;7200;192;4;74;76;8400;3000;3898;3898;1;13010;23.34;23.54;23,6;BCS1388054;5;11
009649;03.03.2021;11:26:36;Stop          ;04.12.2018;FEY;;LION;49;14500;7200;224;4;98;100;8400;;4159;4160;1;13003;28.64;28.84;31,5;BCS1388054;5;11
009649;04.04.2021;11:50:33;Normalcharge  ;04.12.2018;FEY;;LION;49;14500;7200;192;5;54;55;8400;3000;3701;3702;1;13005;25.14;26.64;27,9;BCS1388054;2;8
009649;04.04.2021;11:51:48;Stop          ;04.12.2018;FEY;;LION;49;14500;7200;128;5;54;55;8400;3000;3789;3743;1;12603;25.24;29.44;28,6;BCS1388054;2;8

File: 009655.txt
Serialnumber ; Date ; Time ; Action ; Date of Manufacture ; Manufacturer ; Battery Name ; Device-Chemistry ; Specification-Info ; Design-Capacity [mAh] ; Design-Voltage [mV] ; Battery Status ; Cycle Count ; SOC [%] ; Relativ SOC[%] ; Desired Voltage [mV]; Desired Current [mA]; Cell Voltage 1 [mV] ; Cell Voltage 2 [mV] ; Max_Error [%] ; Busvoltage[mV] ; Battery Temperature [°C] ; Charger Temperature [°C] ; Batterysystem ; Case ; PLace
009655;30.11.2020;09:42:55;Stop          ;04.12.2018;FEY;;LION;49;14500;7200;16576;3;95;96;;;4110;4109;1;13014;27.74;28.34;31,7;BCS1388054;7;15
009655;07.12.2020;04:14:40;Cycle         ;04.12.2018;FEY;;LION;49;14500;7200;16576;3;95;96;;;4107;4107;1;13016;25.84;27.04;30,3;BCS1388054;7;12
009655;08.12.2020;16:20:20;Stop          ;04.12.2018;FEY;;LION;49;14500;7200;16576;3;94;95;;;4106;4105;1;13016;27.44;28.14;31,9;BCS1388054;7;12
009655;07.02.2021;08:47:07;Normalcharge  ;04.12.2018;FEY;;LION;49;14500;7200;192;3;78;81;8400;3000;3945;3944;1;13009;23.64;25.44;29,2;BCS1388054;5;4
009655;07.02.2021;11:50:11;Stop          ;04.12.2018;FEY;;LION;49;14500;7200;224;3;98;100;8400;;4156;4156;1;13009;25.84;26.74;30,0;BCS1388054;5;4
009655;03.03.2021;08:17:21;Normalcharge  ;04.12.2018;FEY;;LION;49;14500;7200;192;4;90;92;8400;3000;4062;4062;1;13006;23.24;22.34;23,5;BCS1388054;3;16
009655;04.03.2021;07:53:40;Stop           ;04.12.2018;FEY;;LION;49;14500;7200;224;4;98;100;8400;;4149;4149;1;13001;26.54;26.74;31,5;BCS1388054;3;16
009655;04.04.2021;11:50:02;Normalcharge  ;04.12.2018;FEY;;LION;49;14500;7200;192;4;52;54;8400;3000;3687;3687;1;12995;24.94;26.04;27,7;BCS1388054;6;18
009655;04.04.2021;11:51:24;Stop          ;04.12.2018;FEY;;LION;49;14500;7200;128;4;53;54;8400;3000;3776;3727;1;12640;25.04;29.64;28,5;BCS1388054;6;18

File: 009665.txt
Serialnumber ; Date ; Time ; Action ; Date of Manufacture ; Manufacturer ; Battery Name ; Device-Chemistry ; Specification-Info ; Design-Capacity [mAh] ; Design-Voltage [mV] ; Battery Status ; Cycle Count ; SOC [%] ; Relativ SOC[%] ; Desired Voltage [mV]; Desired Current [mA]; Cell Voltage 1 [mV] ; Cell Voltage 2 [mV] ; Max_Error [%] ; Busvoltage[mV] ; Battery Temperature [°C] ; Charger Temperature [°C] ; Batterysystem ; Case ; PLace
009665;10.12.2019;15:28:54;Charge to 30% ;04.12.2018;FEY;;LION;49;14500;7200;224;51;91;100;8400;;4129;4130;1;13019;22.94;24.34;27,1;BCS1388054;4;8
009665;10.12.2019;20:47:57;Stop          ;04.12.2018;FEY;;LION;49;14500;7200;192;52;28;30;8400;3000;3563;3564;1;13017;34.64;33.34;33,4;BCS1388054;4;8
009665;11.12.2019;08:48:41;Fastcharge    ;04.12.2018;FEY;;LION;49;14500;7200;192;52;28;30;8400;3000;3570;3570;1;13018;27.04;28.04;31,9;BCS1388054;4;8
009665;11.12.2019;13:42:44;Stop          ;04.12.2018;FEY;;LION;49;14500;7200;224;52;93;100;8400;;4160;4159;1;13018;31.34;30.04;31,9;BCS1388054;4;8
009665;11.12.2019;15:46:31;Charge to 10% ;04.12.2018;FEY;;LION;49;14500;7200;224;52;94;100;8400;;4154;4153;1;13018;27.94;28.24;31,4;BCS1388054;4;8
009665;11.12.2019;22:50:44;Stop          ;04.12.2018;FEY;;LION;49;14500;7200;192;53;10;10;8400;3000;3364;3363;1;13016;35.24;33.34;33,2;BCS1388054;4;8
009665;12.12.2019;08:45:03;Normalcharge  ;04.12.2018;FEY;;LION;49;14500;7200;192;53;9;10;8400;3000;3371;3371;1;13018;27.24;28.04;31,9;BCS1388054;4;8
009665;12.12.2019;16:41:48;Stop          ;04.12.2018;FEY;;LION;49;14500;7200;224;53;94;100;8400;;4158;4155;1;13016;30.24;29.54;31,5;BCS1388054;4;8
009665;13.12.2019;10:48:01;Charge to 10% ;04.12.2018;FEY;;LION;49;14500;7200;224;53;94;100;8400;;4148;4145;1;13019;27.24;28.24;32,0;BCS1388054;4;8
009665;13.12.2019;15:42:25;Stop          ;04.12.2018;FEY;;LION;49;14500;7200;192;54;33;36;8400;3000;3497;3548;1;13511;34.14;38.34;34,6;BCS1388054;4;8
009665;13.12.2019;15:42:27;Cycle         ;04.12.2018;FEY;;LION;49;14500;7200;192;54;33;36;8400;3000;3497;3548;1;13511;34.14;38.34;34,6;BCS1388054;4;8
009665;14.12.2019;22:44:28;Stop          ;04.12.2018;FEY;;LION;49;14500;7200;224;55;92;99;8400;;4152;4152;1;13018;27.44;28.14;32,0;BCS1388054;4;8
009665;16.12.2019;07:43:14;Charge to 10% ;04.12.2018;FEY;;LION;49;14500;7200;224;55;92;100;8400;;4146;4146;1;13018;27.04;27.64;31,9;BCS1388054;4;8
009665;16.12.2019;14:36:44;Stop          ;04.12.2018;FEY;;LION;49;14500;7200;192;57;10;10;8400;3000;3369;3369;1;13018;33.64;32.04;32,4;BCS1388054;4;8
009665;16.12.2019;14:44:13;Charge to 90% ;04.12.2018;FEY;;LION;49;14500;7200;192;57;10;10;8400;3000;3370;3370;1;13018;33.14;30.84;31,7;BCS1388054;4;8
009665;16.12.2019;20:50:27;Stop          ;04.12.2018;FEY;;LION;49;14500;7200;192;57;83;90;8400;3000;4055;4056;1;13018;32.84;31.34;31,6;BCS1388054;4;8
009665;17.12.2019;08:37:49;Fastcharge    ;04.12.2018;FEY;;LION;49;14500;7200;192;57;83;90;8400;3000;4047;4048;1;13018;27.14;27.94;31,6;BCS1388054;4;8
009665;17.12.2019;10:31:06;Stop          ;04.12.2018;FEY;;LION;49;14500;7200;224;57;93;100;8400;;4158;4158;1;13018;28.94;29.14;31,4;BCS1388054;4;8
009665;17.12.2019;13:38:32;Charge to 10% ;04.12.2018;FEY;;LION;49;14500;7200;224;57;93;100;8400;;4149;4149;1;13018;27.44;27.84;30,8;BCS1388054;4;8
009665;17.12.2019;20:34:29;Stop          ;04.12.2018;FEY;;LION;49;14500;7200;192;58;10;10;8400;3000;3369;3369;1;13016;35.34;33.64;34,1;BCS1388054;4;8
009665;18.12.2019;08:31:26;Fastcharge    ;04.12.2018;FEY;;LION;49;14500;7200;192;58;10;10;8400;3000;3377;3377;1;13019;27.24;27.94;31,6;BCS1388054;4;8
009665;18.12.2019;14:29:12;Stop          ;04.12.2018;FEY;;LION;49;14500;7200;224;58;93;100;8400;;4159;4159;1;13018;31.34;30.24;31,9;BCS1388054;4;8
009665;19.12.2019;08:23:58;Charge to 60% ;04.12.2018;FEY;;LION;49;14500;7200;224;58;94;100;8400;;4149;4149;1;13018;27.14;28.04;31,6;BCS1388054;4;8
009665;19.12.2019;11:30:18;Stop          ;04.12.2018;FEY;;LION;49;14500;7200;192;58;57;60;8400;3000;3770;3771;1;13016;35.14;34.54;34,6;BCS1388054;4;8
009665;19.12.2019;12:16:45;Cycle         ;04.12.2018;FEY;;LION;49;14500;7200;192;58;57;60;8400;3000;3779;3779;1;13017;31.84;30.54;32,7;BCS1388054;4;8
009665;20.12.2019;17:30:48;Stop          ;04.12.2018;FEY;;LION;49;14500;7200;224;59;92;100;8400;;4152;4152;1;13018;27.64;27.74;30,6;BCS1388054;4;8
009665;06.01.2020;06:34:50;Charge to 60% ;04.12.2018;FEY;;LION;49;14500;7200;192;59;91;98;8400;;4123;4123;1;13019;27.44;28.14;31,9;BCS1388054;4;8
009665;06.01.2020;09:30:33;Stop          ;04.12.2018;FEY;;LION;49;14500;7200;192;60;56;60;8400;3000;3777;3777;1;13017;34.34;33.54;33,7;BCS1388054;4;8
009665;06.01.2020;09:50:38;Fastcharge    ;04.12.2018;FEY;;LION;49;14500;7200;192;60;56;60;8400;3000;3783;3784;1;13019;32.84;31.14;32,7;BCS1388054;4;8
009665;06.01.2020;13:09:19;Stop          ;04.12.2018;FEY;;LION;49;14500;7200;224;60;93;100;8400;;4157;4157;1;13019;30.84;29.64;31,4;BCS1388054;4;8

File: 009687.txt
Serialnumber ; Date ; Time ; Action ; Date of Manufacture ; Manufacturer ; Battery Name ; Device-Chemistry ; Specification-Info ; Design-Capacity [mAh] ; Design-Voltage [mV] ; Battery Status ; Cycle Count ; SOC [%] ; Relativ SOC[%] ; Desired Voltage [mV]; Desired Current [mA]; Cell Voltage 1 [mV] ; Cell Voltage 2 [mV] ; Max_Error [%] ; Busvoltage[mV] ; Battery Temperature [°C] ; Charger Temperature [°C] ; Batterysystem ; Case ; PLace
009687;07.12.2020;04:14:40;Cycle         ;04.12.2018;FEY;;LION;49;14500;7200;192;3;95;96;8400;;4107;4107;1;13022;25.74;26.34;30,3;BCS1388054;7;11
009687;08.12.2020;16:20:20;Stop          ;04.12.2018;FEY;;LION;49;14500;7200;192;3;95;96;8400;;4106;4106;1;13019;27.54;27.54;31,9;BCS1388054;7;11
009687;12.01.2021;04:16:00;Charge to 90% ;04.12.2018;FEY;;LION;49;14500;7200;192;3;87;89;8400;3000;4030;4031;1;12999;23.14;22.04;23,0;BCS1388054;1;11
009687;12.01.2021;04:16:03;Stop          ;04.12.2018;FEY;;LION;49;14500;7200;192;3;87;89;8400;3000;4030;4031;1;13000;23.14;22.64;23,0;BCS1388054;1;11
009687;12.01.2021;04:17:15;Charge to 90% ;04.12.2018;FEY;;LION;49;14500;7200;192;3;87;89;8400;3000;4030;4031;1;12996;23.14;23.04;23,5;BCS1388054;1;11
009687;12.01.2021;04:55:18;Stop          ;04.12.2018;FEY;;LION;49;14500;7200;192;3;88;90;8400;3000;4041;4043;1;12990;26.34;28.24;31,7;BCS1388054;1;11
009687;12.01.2021;05:21:33;Cycle         ;04.12.2018;FEY;;LION;49;14500;7200;192;3;88;90;8400;3000;4041;4042;1;12991;26.74;26.44;30,6;BCS1388054;1;11
009687;13.01.2021;08:18:34;Stop          ;04.12.2018;FEY;;LION;49;14500;7200;224;4;96;100;8400;;4155;4158;1;12993;26.54;26.34;30,7;BCS1388054;1;11
009687;03.03.2021;08:17:21;Normalcharge  ;04.12.2018;FEY;;LION;49;14500;7200;192;4;91;94;8400;3000;4085;4087;1;13019;23.24;23.14;23,5;BCS1388054;3;3
009687;04.03.2021;07:53:39;Stop           ;04.12.2018;FEY;;LION;49;14500;7200;224;4;97;100;8400;;4147;4149;1;13015;26.54;28.14;31,5;BCS1388054;3;3
009687;04.04.2021;11:50:22;Normalcharge  ;04.12.2018;FEY;;LION;49;14500;7200;192;5;16;16;8400;3000;3409;3420;1;13009;25.24;26.04;27,9;BCS1388054;4;12
009687;04.04.2021;11:51:36;Stop          ;04.12.2018;FEY;;LION;49;14500;7200;128;5;16;16;8400;3000;3508;3470;1;12715;25.24;27.84;28,6;BCS1388054;4;12

File: 009715.txt
Serialnumber ; Date ; Time ; Action ; Date of Manufacture ; Manufacturer ; Battery Name ; Device-Chemistry ; Specification-Info ; Design-Capacity [mAh] ; Design-Voltage [mV] ; Battery Status ; Cycle Count ; SOC [%] ; Relativ SOC[%] ; Desired Voltage [mV]; Desired Current [mA]; Cell Voltage 1 [mV] ; Cell Voltage 2 [mV] ; Max_Error [%] ; Busvoltage[mV] ; Battery Temperature [°C] ; Charger Temperature [°C] ; Batterysystem ; Case ; PLace
009715;30.11.2020;09:42:55;Stop          ;04.12.2018;FEY;;LION;49;14500;7200;16576;3;94;95;;;4101;4101;1;13023;27.64;28.94;31,7;BCS1388054;7;10
009715;12.01.2021;04:16:00;Charge to 90% ;04.12.2018;FEY;;LION;49;14500;7200;16576;3;94;95;;;4090;4090;1;13015;23.04;17.24;23,0;BCS1388054;1;16
009715;12.01.2021;04:16:03;Stop          ;04.12.2018;FEY;;LION;49;14500;7200;16576;3;94;95;;;4090;4090;1;13017;23.04;22.54;23,0;BCS1388054;1;16
009715;12.01.2021;04:17:15;Charge to 90% ;04.12.2018;FEY;;LION;49;14500;7200;16576;3;94;95;;;4090;4090;1;13015;23.04;23.34;23,5;BCS1388054;1;16
009715;12.01.2021;04:55:18;Stop          ;04.12.2018;FEY;;LION;49;14500;7200;192;3;90;90;8400;3000;4045;4045;1;13012;26.24;29.14;31,7;BCS1388054;1;16
009715;12.01.2021;05:21:33;Cycle         ;04.12.2018;FEY;;LION;49;14500;7200;192;3;90;90;8400;3000;4047;4047;1;13012;26.44;27.44;30,6;BCS1388054;1;16
009715;13.01.2021;08:18:34;Stop          ;04.12.2018;FEY;;LION;49;14500;7200;224;5;97;100;8400;;4155;4156;1;13013;26.44;27.34;30,7;BCS1388054;1;16
009715;21.02.2021;13:43:49;Normalcharge  ;04.12.2018;FEY;;LION;49;14500;7200;192;5;66;68;8400;3000;3837;3837;1;13011;23.04;24.14;27,7;BCS1388054;3;13
009715;21.02.2021;20:44:52;Stop           ;04.12.2018;FEY;;LION;49;14500;7200;224;5;97;100;8400;;4151;4152;1;13004;26.74;28.94;31,2;BCS1388054;3;13
009715;04.04.2021;11:50:39;Normalcharge  ;04.12.2018;FEY;;LION;49;14500;7200;192;6;51;53;8400;3000;3678;3678;1;12992;24.84;26.64;28,1;BCS1388054;1;9
009715;04.04.2021;11:51:54;Stop          ;04.12.2018;FEY;;LION;49;14500;7200;128;6;51;53;8400;3000;3767;3719;1;12547;24.94;29.34;28,8;BCS1388054;1;9

File: 009726.txt
Serialnumber ; Date ; Time ; Action ; Date of Manufacture ; Manufacturer ; Battery Name ; Device-Chemistry ; Specification-Info ; Design-Capacity [mAh] ; Design-Voltage [mV] ; Battery Status ; Cycle Count ; SOC [%] ; Relativ SOC[%] ; Desired Voltage [mV]; Desired Current [mA]; Cell Voltage 1 [mV] ; Cell Voltage 2 [mV] ; Max_Error [%] ; Busvoltage[mV] ; Battery Temperature [°C] ; Charger Temperature [°C] ; Batterysystem ; Case ; PLace
009726;12.01.2021;04:16:00;Charge to 90% ;04.12.2018;FEY;;LION;49;14500;7200;192;3;97;97;8400;;4129;4129;1;12997;23.24;19.34;23,0;BCS1388054;1;1
009726;12.01.2021;04:16:03;Stop          ;04.12.2018;FEY;;LION;49;14500;7200;192;3;97;97;8400;;4129;4129;1;12997;23.24;22.54;23,0;BCS1388054;1;1
009726;12.01.2021;04:17:15;Charge to 90% ;04.12.2018;FEY;;LION;49;14500;7200;192;3;97;97;8400;;4129;4129;1;12996;23.24;23.44;23,5;BCS1388054;1;1
009726;12.01.2021;04:55:18;Stop          ;04.12.2018;FEY;;LION;49;14500;7200;192;3;90;90;8400;3000;4061;4060;1;12993;26.94;30.04;31,7;BCS1388054;1;1
009726;12.01.2021;05:21:33;Cycle         ;04.12.2018;FEY;;LION;49;14500;7200;192;3;90;90;8400;3000;4066;4066;1;12993;27.04;28.14;30,6;BCS1388054;1;1
009726;13.01.2021;08:18:34;Stop          ;04.12.2018;FEY;;LION;49;14500;7200;224;4;97;100;8400;;4155;4156;1;12993;26.94;28.04;30,7;BCS1388054;1;1
009726;22.02.2021;17:31:46;Normalcharge  ;04.12.2018;FEY;;LION;49;14500;7200;192;5;47;49;8400;3000;3648;3648;1;12998;26.24;26.24;31,6;BCS1388054;1;18
009726;22.02.2021;23:06:28;Stop          ;04.12.2018;FEY;;LION;49;14500;7200;224;5;98;100;8400;;4156;4156;1;12998;26.54;27.54;30,6;BCS1388054;1;18

File: 009744.txt
Serialnumber ; Date ; Time ; Action ; Date of Manufacture ; Manufacturer ; Battery Name ; Device-Chemistry ; Specification-Info ; Design-Capacity [mAh] ; Design-Voltage [mV] ; Battery Status ; Cycle Count ; SOC [%] ; Relativ SOC[%] ; Desired Voltage [mV]; Desired Current [mA]; Cell Voltage 1 [mV] ; Cell Voltage 2 [mV] ; Max_Error [%] ; Busvoltage[mV] ; Battery Temperature [°C] ; Charger Temperature [°C] ; Batterysystem ; Case ; PLace
009744;24.11.2020;08:56:08;Normalcharge  ;04.12.2018;FEY;;LION;49;14500;7200;192;3;17;17;8400;3000;3437;3437;1;13002;23.74;26.64;25,7;BCS1388054;1;15
009744;24.11.2020;08:59:34;Stop          ;04.12.2018;FEY;;LION;49;14500;7200;128;3;18;18;8400;3000;3547;3499;1;12905;24.14;32.54;26,4;BCS1388054;1;15
009744;24.11.2020;08:59:41;Normalcharge  ;04.12.2018;FEY;;LION;49;14500;7200;128;3;18;18;8400;3000;3463;3465;1;12997;24.24;32.54;26,4;BCS1388054;1;15
009744;24.11.2020;16:23:04;Stop          ;04.12.2018;FEY;;LION;49;14500;7200;224;3;100;100;8400;;4166;4162;1;12994;26.94;30.84;28,5;BCS1388054;1;15
009744;07.12.2020;04:14:21;Cycle         ;04.12.2018;FEY;;LION;49;14500;7200;224;3;98;99;8400;;4140;4137;1;12999;25.84;28.64;30,3;BCS1388054;2;2
009744;08.12.2020;16:19:44;Stop          ;04.12.2018;FEY;;LION;49;14500;7200;224;4;97;100;8400;;4152;4151;1;13000;27.84;30.14;31,9;BCS1388054;2;2
009744;03.03.2021;08:17:46;Normalcharge  ;04.12.2018;FEY;;LION;49;14500;7200;192;5;64;66;8400;3000;3808;3810;1;13033;23.24;23.64;23,6;BCS1388054;7;1
009744;03.03.2021;10:54:05;Stop          ;04.12.2018;FEY;;LION;49;14500;7200;128;5;95;97;8400;3000;4182;4148;1;12725;29.64;33.64;31,4;BCS1388054;7;1
009744;03.03.2021;10:55:49;Normalcharge  ;04.12.2018;FEY;;LION;49;14500;7200;192;5;95;98;8400;3000;4118;4117;1;13027;29.64;31.34;30,6;BCS1388054;7;1
009744;03.03.2021;17:03:24;Stop          ;04.12.2018;FEY;;LION;49;14500;7200;224;5;98;100;8400;;4151;4150;1;13028;26.34;28.34;31,4;BCS1388054;7;1
009744;04.04.2021;11:49:55;Normalcharge  ;04.12.2018;FEY;;LION;49;14500;7200;192;5;59;60;8400;3000;3746;3751;1;13018;25.14;24.84;27,5;BCS1388054;7;15
009744;04.04.2021;11:51:17;Stop          ;04.12.2018;FEY;;LION;49;14500;7200;128;5;59;60;8400;3000;3839;3797;1;12733;25.14;28.14;28,4;BCS1388054;7;15

File: 009748.txt
Serialnumber ; Date ; Time ; Action ; Date of Manufacture ; Manufacturer ; Battery Name ; Device-Chemistry ; Specification-Info ; Design-Capacity [mAh] ; Design-Voltage [mV] ; Battery Status ; Cycle Count ; SOC [%] ; Relativ SOC[%] ; Desired Voltage [mV]; Desired Current [mA]; Cell Voltage 1 [mV] ; Cell Voltage 2 [mV] ; Max_Error [%] ; Busvoltage[mV] ; Battery Temperature [°C] ; Charger Temperature [°C] ; Batterysystem ; Case ; PLace
009748;07.12.2020;04:14:25;Cycle          ;04.12.2018;FEY;;LION;49;14500;7200;192;2;98;98;8400;;4144;4145;1;13002;25.84;27.44;30,3;BCS1388054;3;10
009748;08.12.2020;16:19:50;Stop           ;04.12.2018;FEY;;LION;49;14500;7200;192;2;97;98;8400;;4141;4143;1;13003;28.04;29.04;31,9;BCS1388054;3;10
009748;07.02.2021;08:47:00;Normalcharge  ;04.12.2018;FEY;;LION;49;14500;7200;192;2;90;91;8400;3000;4060;4062;1;13014;23.94;24.34;29,2;BCS1388054;4;18
009748;07.02.2021;11:52:20;Stop          ;04.12.2018;FEY;;LION;49;14500;7200;224;2;100;100;8400;;4151;4153;1;13014;25.84;25.84;29,7;BCS1388054;4;18
009748;03.03.2021;08:17:21;Normalcharge  ;04.12.2018;FEY;;LION;49;14500;7200;192;2;90;93;8400;3000;4067;4068;1;13011;23.24;23.14;23,5;BCS1388054;3;9
009748;04.03.2021;07:53:40;Stop           ;04.12.2018;FEY;;LION;49;14500;7200;224;2;98;100;8400;;4148;4150;1;13006;26.74;27.64;31,5;BCS1388054;3;9
009748;04.04.2021;11:50:22;Normalcharge  ;04.12.2018;FEY;;LION;49;14500;7200;192;3;47;49;8400;3000;3644;3645;1;13007;25.34;25.44;27,9;BCS1388054;4;9
009748;04.04.2021;11:51:36;Stop          ;04.12.2018;FEY;;LION;49;14500;7200;128;3;47;49;8400;3000;3728;3683;1;12730;25.34;28.04;28,6;BCS1388054;4;9

File: 009751.txt
Serialnumber ; Date ; Time ; Action ; Date of Manufacture ; Manufacturer ; Battery Name ; Device-Chemistry ; Specification-Info ; Design-Capacity [mAh] ; Design-Voltage [mV] ; Battery Status ; Cycle Count ; SOC [%] ; Relativ SOC[%] ; Desired Voltage [mV]; Desired Current [mA]; Cell Voltage 1 [mV] ; Cell Voltage 2 [mV] ; Max_Error [%] ; Busvoltage[mV] ; Battery Temperature [°C] ; Charger Temperature [°C] ; Batterysystem ; Case ; PLace
009751;07.12.2020;04:14:36;Cycle         ;04.12.2018;FEY;;LION;49;14500;7200;192;2;96;98;8400;;4145;4145;1;13007;25.74;28.54;30,3;BCS1388054;6;3
009751;08.12.2020;16:20:13;Stop          ;04.12.2018;FEY;;LION;49;14500;7200;192;2;96;98;8400;;4142;4142;1;13007;27.84;30.04;31,9;BCS1388054;6;3
009751;07.02.2021;08:47:07;Normalcharge  ;04.12.2018;FEY;;LION;49;14500;7200;192;3;74;75;8400;3000;3901;3901;1;13002;23.54;24.14;29,2;BCS1388054;5;6
009751;07.02.2021;11:50:11;Stop          ;04.12.2018;FEY;;LION;49;14500;7200;224;3;99;100;8400;;4157;4156;1;13002;25.64;25.34;30,0;BCS1388054;5;6
009751;03.03.2021;08:17:21;Normalcharge  ;04.12.2018;FEY;;LION;49;14500;7200;192;3;89;91;8400;3000;4066;4065;1;13009;23.24;22.94;23,5;BCS1388054;3;18
009751;04.03.2021;07:53:40;Stop           ;04.12.2018;FEY;;LION;49;14500;7200;224;3;99;100;8400;;4147;4146;1;13002;26.44;27.34;31,5;BCS1388054;3;18
009751;04.04.2021;11:50:33;Normalcharge  ;04.12.2018;FEY;;LION;49;14500;7200;192;3;55;57;8400;3000;3721;3721;1;13012;25.04;26.44;27,9;BCS1388054;2;9
009751;04.04.2021;11:51:48;Stop          ;04.12.2018;FEY;;LION;49;14500;7200;128;3;55;57;8400;3000;3813;3765;1;12620;25.04;29.04;28,6;BCS1388054;2;9