Folder: Battery_sort_V2/reader/backup_20210405/Batterieverzeichnis_new (part 3)

File: 009752.txt
Serialnumber ; Date ; Time ; Action ; Date of Manufacture ; Manufacturer ; Battery Name ; Device-Chemistry ; Specification-Info ; Design-Capacity [mAh] ; Design-Voltage [mV] ; Battery Status ; Cycle Count ; SOC [%] ; Relativ SOC[%] ; Desired Voltage [mV]; Desired Current [mA]; Cell Voltage 1 [mV] ; Cell Voltage 2 [mV] ; Max_Error [%] ; Busvoltage[mV] ; Battery Temperature [°C] ; Charger Temperature [°C] ; Batterysystem ; Case ; PLace
009752;07.12.2020;04:14:36;Cycle         ;04.12.2018;FEY;;LION;49;14500;7200;192;2;94;97;8400;;4125;4125;1;12996;25.54;28.44;30,3;BCS1388054;6;14
009752;08.12.2020;16:20:13;Stop          ;04.12.2018;FEY;;LION;49;14500;7200;192;2;94;97;8400;;4124;4124;1;12997;27.74;30.14;31,9;BCS1388054;6;14
009752;07.02.2021;08:46:59;Normalcharge  ;04.12.2018;FEY;;LION;49;14500;7200;192;2;90;93;8400;3000;4088;4087;1;13011;23.44;25.44;29,2;BCS1388054;4;4
009752;07.02.2021;11:52:20;Stop          ;04.12.2018;FEY;;LION;49;14500;7200;224;2;97;100;8400;;4151;4151;1;13011;25.74;26.44;29,7;BCS1388054;4;4
009752;03.03.2021;08:17:21;Normalcharge  ;04.12.2018;FEY;;LION;49;14500;7200;192;2;89;94;8400;3000;4081;4081;1;13011;23.04;22.54;23,5;BCS1388054;3;2
009752;04.03.2021;07:53:39;Stop           ;04.12.2018;FEY;;LION;49;14500;7200;224;2;95;100;8400;;4148;4148;1;13005;26.34;27.94;31,5;BCS1388054;3;2
009752;04.04.2021;11:50:02;Normalcharge  ;04.12.2018;FEY;;LION;49;14500;7200;192;2;58;61;8400;3000;3759;3759;1;13002;24.84;26.04;27,7;BCS1388054;6;14
009752;04.04.2021;11:51:24;Stop          ;04.12.2018;FEY;;LION;49;14500;7200;128;2;58;61;8400;3000;3852;3804;1;12664;24.84;29.64;28,5;BCS1388054;6;14

File: 009757.txt
Serialnumber ; Date ; Time ; Action ; Date of Manufacture ; Manufacturer ; Battery Name ; Device-Chemistry ; Specification-Info ; Design-Capacity [mAh] ; Design-Voltage [mV] ; Battery Status ; Cycle Count ; SOC [%] ; Relativ SOC[%] ; Desired Voltage [mV]; Desired Current [mA]; Cell Voltage 1 [mV] ; Cell Voltage 2 [mV] ; Max_Error [%] ; Busvoltage[mV] ; Battery Temperature [°C] ; Charger Temperature [°C] ; Batterysystem ; Case ; PLace
009757;07.12.2020;04:14:32;Cycle         ;04.12.2018;FEY;;LION;49;14500;7200;192;2;94;98;8400;;4132;4130;1;13014;25.94;27.34;30,3;BCS1388054;5;18
009757;08.12.2020;16:20:01;Stop          ;04.12.2018;FEY;;LION;49;14500;7200;192;2;94;98;8400;;4130;4128;1;13013;27.74;28.94;31,7;BCS1388054;5;18
009757;07.02.2021;08:46:59;Normalcharge  ;04.12.2018;FEY;;LION;49;14500;7200;192;2;92;93;8400;3000;4086;4085;1;13000;23.64;26.64;29,2;BCS1388054;4;3
009757;07.02.2021;11:52:20;Stop          ;04.12.2018;FEY;;LION;49;14500;7200;224;2;99;100;8400;;4149;4148;1;12998;26.04;27.84;29,7;BCS1388054;4;3
009757;03.03.2021;08:17:35;Normalcharge  ;04.12.2018;FEY;;LION;49;14500;7200;192;2;78;80;8400;3000;3935;3934;1;13015;23.24;23.44;23,6;BCS1388054;5;4
009757;03.03.2021;11:26:36;Stop          ;04.12.2018;FEY;;LION;49;14500;7200;224;2;97;100;8400;;4155;4154;1;13009;28.34;29.34;31,5;BCS1388054;5;4
009757;04.04.2021;11:50:39;Normalcharge  ;04.12.2018;FEY;;LION;49;14500;7200;224;2;96;99;8400;;4134;4133;1;12992;25.04;26.04;28,1;BCS1388054;1;5
009757;04.04.2021;11:51:54;Stop          ;04.12.2018;FEY;;LION;49;14500;7200;224;2;96;99;8400;;4133;4132;1;12558;25.14;26.44;28,8;BCS1388054;1;5

File: 009768.txt
Serialnumber ; Date ; Time ; Action ; Date of Manufacture ; Manufacturer ; Battery Name ; Device-Chemistry ; Specification-Info ; Design-Capacity [mAh] ; Design-Voltage [mV] ; Battery Status ; Cycle Count ; SOC [%] ; Relativ SOC[%] ; Desired Voltage [mV]; Desired Current [mA]; Cell Voltage 1 [mV] ; Cell Voltage 2 [mV] ; Max_Error [%] ; Busvoltage[mV] ; Battery Temperature [°C] ; Charger Temperature [°C] ; Batterysystem ; Case ; PLace
009768;07.12.2020;04:14:32;Cycle         ;04.12.2018;FEY;;LION;49;14500;7200;16576;3;97;98;;;4144;4145;1;13010;25.84;27.64;30,3;BCS1388054;5;8
009768;08.12.2020;16:20:01;Stop          ;04.12.2018;FEY;;LION;49;14500;7200;16576;3;97;98;;;4141;4143;1;13010;28.04;29.24;31,7;BCS1388054;5;8
009768;07.02.2021;08:46:43;Normalcharge  ;04.12.2018;FEY;;LION;49;14500;7200;16576;3;95;97;;;4120;4121;1;13014;23.64;25.54;29,2;BCS1388054;1;16
009768;07.02.2021;11:52:07;Stop          ;04.12.2018;FEY;;LION;49;14500;7200;16576;3;95;97;;;4120;4121;1;13016;25.84;26.74;29,7;BCS1388054;1;16
009768;03.03.2021;08:17:46;Normalcharge  ;04.12.2018;FEY;;LION;49;14500;7200;192;4;65;66;8400;3000;3829;3830;1;13030;23.24;23.34;23,6;BCS1388054;7;2
009768;03.03.2021;10:54:05;Stop          ;04.12.2018;FEY;;LION;49;14500;7200;128;4;96;97;8400;3000;4180;4158;1;12720;29.94;33.84;31,4;BCS1388054;7;2
009768;03.03.2021;10:55:49;Normalcharge  ;04.12.2018;FEY;;LION;49;14500;7200;192;4;96;97;8400;3000;4127;4129;1;13026;29.84;31.54;30,6;BCS1388054;7;2
009768;03.03.2021;17:03:24;Stop          ;04.12.2018;FEY;;LION;49;14500;7200;224;4;99;100;8400;;4153;4156;1;13027;26.34;28.14;31,4;BCS1388054;7;2
009768;04.04.2021;11:49:55;Normalcharge  ;04.12.2018;FEY;;LION;49;14500;7200;192;4;55;57;8400;3000;3714;3716;1;13029;25.14;25.34;27,5;BCS1388054;7;13
009768;04.04.2021;11:51:17;Stop          ;04.12.2018;FEY;;LION;49;14500;7200;128;4;55;57;8400;3000;3802;3759;1;12744;25.24;28.84;28,4;BCS1388054;7;13

File: 009770.txt
Serialnumber ; Date ; Time ; Action ; Date of Manufacture ; Manufacturer ; Battery Name ; Device-Chemistry ; Specification-Info ; Design-Capacity [mAh] ; Design-Voltage [mV] ; Battery Status ; Cycle Count ; SOC [%] ; Relativ SOC[%] ; Desired Voltage [mV]; Desired Current [mA]; Cell Voltage 1 [mV] ; Cell Voltage 2 [mV] ; Max_Error [%] ; Busvoltage[mV] ; Battery Temperature [°C] ; Charger Temperature [°C] ; Batterysystem ; Case ; PLace
009770;07.12.2020;04:14:25;Cycle          ;04.12.2018;FEY;;LION;49;14500;7200;16576;3;98;98;;;4140;4141;1;13006;25.74;26.84;30,3;BCS1388054;3;17
009770;08.12.2020;16:19:50;Stop           ;04.12.2018;FEY;;LION;49;14500;7200;16576;3;98;98;;;4138;4138;1;13007;27.94;28.64;31,9;BCS1388054;3;17
009770;07.02.2021;08:47:06;Normalcharge  ;04.12.2018;FEY;;LION;49;14500;7200;192;4;91;90;8400;3000;4060;4059;1;13006;23.54;25.24;29,2;BCS1388054;5;1
009770;07.02.2021;11:50:11;Stop          ;04.12.2018;FEY;;LION;49;14500;7200;224;4;101;100;8400;;4149;4149;1;13005;25.74;26.74;30,0;BCS1388054;5;1
009770;03.03.2021;08:17:17;Normalcharge  ;04.12.2018;FEY;;LION;49;14500;7200;192;4;93;95;8400;3000;4084;4084;1;13011;23.24;23.64;23,5;BCS1388054;2;4
009770;04.03.2021;07:53:46;Stop          ;04.12.2018;FEY;;LION;49;14500;7200;224;4;99;100;8400;;4146;4146;1;13004;26.44;28.14;31,6;BCS1388054;2;4
009770;04.04.2021;11:50:39;Normalcharge  ;04.12.2018;FEY;;LION;49;14500;7200;192;4;52;54;8400;3000;3684;3684;1;12996;24.94;25.74;28,1;BCS1388054;1;10
009770;04.04.2021;11:51:54;Stop          ;04.12.2018;FEY;;LION;49;14500;7200;128;4;53;54;8400;3000;3774;3723;1;12550;25.04;28.54;28,8;BCS1388054;1;10

File: 009777.txt
Serialnumber ; Date ; Time ; Action ; Date of Manufacture ; Manufacturer ; Battery Name ; Device-Chemistry ; Specification-Info ; Design-Capacity [mAh] ; Design-Voltage [mV] ; Battery Status ; Cycle Count ; SOC [%] ; Relativ SOC[%] ; Desired Voltage [mV]; Desired Current [mA]; Cell Voltage 1 [mV] ; Cell Voltage 2 [mV] ; Max_Error [%] ; Busvoltage[mV] ; Battery Temperature [°C] ; Charger Temperature [°C] ; Batterysystem ; Case ; PLace
009777;07.12.2020;04:14:40;Cycle         ;04.12.2018;FEY;;LION;49;14500;7200;192;2;96;97;8400;;4126;4125;1;13025;25.54;27.94;30,3;BCS1388054;7;2
009777;08.12.2020;16:20:20;Stop          ;04.12.2018;FEY;;LION;49;14500;7200;192;2;96;97;8400;;4125;4123;1;13025;27.54;29.34;31,9;BCS1388054;7;2
009777;07.02.2021;08:47:00;Normalcharge  ;04.12.2018;FEY;;LION;49;14500;7200;192;2;89;91;8400;3000;4050;4048;1;13004;23.44;25.24;29,2;BCS1388054;4;17
009777;07.02.2021;11:52:20;Stop          ;04.12.2018;FEY;;LION;49;14500;7200;224;2;99;100;8400;;4152;4150;1;13003;25.74;26.74;29,7;BCS1388054;4;17
009777;03.03.2021;08:17:29;Normalcharge  ;04.12.2018;FEY;;LION;49;14500;7200;192;3;87;90;8400;3000;4038;4036;1;13008;23.14;23.44;23,5;BCS1388054;4;6
009777;03.03.2021;10:32:46;Stop          ;04.12.2018;FEY;;LION;49;14500;7200;224;3;97;100;8400;;4155;4153;1;13002;27.94;28.44;32,0;BCS1388054;4;6
009777;04.04.2021;11:50:10;Normalcharge  ;04.12.2018;FEY;;LION;49;14500;7200;2768;4;;;8400;3000;3084;3094;1;13018;24.84;25.84;27,8;BCS1388054;5;8
009777;04.04.2021;11:51:30;Stop          ;04.12.2018;FEY;;LION;49;14500;7200;144;4;;;8400;3000;3146;3135;1;12694;24.94;27.74;28,5;BCS1388054;5;8

File: 009790.txt
Serialnumber ; Date ; Time ; Action ; Date of Manufacture ; Manufacturer ; Battery Name ; Device-Chemistry ; Specification-Info ; Design-Capacity [mAh] ; Design-Voltage [mV] ; Battery Status ; Cycle Count ; SOC [%] ; Relativ SOC[%] ; Desired Voltage [mV]; Desired Current [mA]; Cell Voltage 1 [mV] ; Cell Voltage 2 [mV] ; Max_Error [%] ; Busvoltage[mV] ; Battery Temperature [°C] ; Charger Temperature [°C] ; Batterysystem ; Case ; PLace
009790;07.12.2020;04:14:17;Cycle         ;03.12.2018;FEY;;LION;49;14500;7200;16576;2;96;100;;;4140;4140;1;13003;25.34;27.54;30,3;BCS1388054;1;7
009790;08.12.2020;16:19:38;Stop          ;03.12.2018;FEY;;LION;49;14500;7200;16576;2;96;100;;;4137;4138;1;13004;27.24;28.84;31,9;BCS1388054;1;7
009790;07.02.2021;08:46:42;Normalcharge  ;03.12.2018;FEY;;LION;49;14500;7200;16576;2;94;98;;;4115;4115;1;12992;23.24;25.64;29,2;BCS1388054;1;4
009790;07.02.2021;11:52:07;Stop          ;03.12.2018;FEY;;LION;49;14500;7200;16576;2;94;98;;;4115;4115;1;12991;25.34;26.44;29,7;BCS1388054;1;4
009790;03.03.2021;08:17:21;Normalcharge  ;03.12.2018;FEY;;LION;49;14500;7200;16576;3;89;93;;;4070;4070;1;13007;22.84;23.44;23,5;BCS1388054;3;12
009790;04.03.2021;07:53:40;Stop           ;03.12.2018;FEY;;LION;49;14500;7200;16576;3;89;93;;;4069;4069;1;13002;26.04;27.04;31,5;BCS1388054;3;12
009790;04.04.2021;11:50:28;Normalcharge  ;03.12.2018;FEY;;LION;49;14500;7200;192;3;44;46;8400;3000;3633;3633;1;13002;24.64;25.94;27,9;BCS1388054;3;12
009790;04.04.2021;11:51:43;Stop           ;03.12.2018;FEY;;LION;49;14500;7200;128;3;44;47;8400;3000;3719;3671;1;12776;24.74;27.74;28,6;BCS1388054;3;12

File: 009792.txt
Serialnumber ; Date ; Time ; Action ; Date of Manufacture ; Manufacturer ; Battery Name ; Device-Chemistry ; Specification-Info ; Design-Capacity [mAh] ; Design-Voltage [mV] ; Battery Status ; Cycle Count ; SOC [%] ; Relativ SOC[%] ; Desired Voltage [mV]; Desired Current [mA]; Cell Voltage 1 [mV] ; Cell Voltage 2 [mV] ; Max_Error [%] ; Busvoltage[mV] ; Battery Temperature [°C] ; Charger Temperature [°C] ; Batterysystem ; Case ; PLace
009792;07.12.2020;04:14:28;Cycle         ;04.12.2018;FEY;;LION;49;14500;7200;16576;3;99;98;;;4146;4147;1;13010;25.94;27.84;30,3;BCS1388054;4;10
009792;08.12.2020;16:19:56;Stop          ;04.12.2018;FEY;;LION;49;14500;7200;16576;3;99;98;;;4144;4144;1;13010;28.04;29.24;31,9;BCS1388054;4;10
009792;07.02.2021;08:46:49;Normalcharge  ;04.12.2018;FEY;;LION;49;14500;7200;16576;3;97;96;;;4120;4120;1;12998;24.04;25.84;29,2;BCS1388054;2;12
009792;07.02.2021;11:52:12;Stop          ;04.12.2018;FEY;;LION;49;14500;7200;16576;3;97;96;;;4120;4120;1;12999;26.04;26.94;29,7;BCS1388054;2;12
009792;03.03.2021;08:17:17;Normalcharge  ;04.12.2018;FEY;;LION;49;14500;7200;16576;3;95;95;;;4101;4101;1;12994;23.44;23.74;23,5;BCS1388054;2;7
009792;04.03.2021;07:53:46;Stop          ;04.12.2018;FEY;;LION;49;14500;7200;16576;3;95;95;;;4100;4101;1;12987;26.74;28.54;31,6;BCS1388054;2;7
009792;04.04.2021;11:49:55;Normalcharge  ;04.12.2018;FEY;;LION;49;14500;7200;16576;3;94;93;;;4087;4087;1;13026;25.14;25.44;27,5;BCS1388054;7;3
009792;04.04.2021;11:51:17;Stop          ;04.12.2018;FEY;;LION;49;14500;7200;16576;3;94;93;;;4087;4087;1;12752;25.14;26.34;28,4;BCS1388054;7;3

File: 009803.txt
Serialnumber ; Date ; Time ; Action ; Date of Manufacture ; Manufacturer ; Battery Name ; Device-Chemistry ; Specification-Info ; Design-Capacity [mAh] ; Design-Voltage [mV] ; Battery Status ; Cycle Count ; SOC [%] ; Relativ SOC[%] ; Desired Voltage [mV]; Desired Current [mA]; Cell Voltage 1 [mV] ; Cell Voltage 2 [mV] ; Max_Error [%] ; Busvoltage[mV] ; Battery Temperature [°C] ; Charger Temperature [°C] ; Batterysystem ; Case ; PLace
009803;24.11.2020;08:59:34;Stop          ;03.12.2018;FEY;;LION;49;14500;7200;192;1;80;81;8400;3000;3944;3944;1;12920;22.54;27.14;26,4;BCS1388054;1;14
009803;24.11.2020;08:59:41;Normalcharge  ;03.12.2018;FEY;;LION;49;14500;7200;192;1;80;81;8400;3000;3944;3944;1;13001;22.54;27.14;26,4;BCS1388054;1;14
009803;24.11.2020;16:23:04;Stop          ;03.12.2018;FEY;;LION;49;14500;7200;224;1;99;100;8400;;4154;4154;1;12998;26.24;29.04;28,5;BCS1388054;1;14
009803;07.12.2020;04:14:17;Cycle         ;03.12.2018;FEY;;LION;49;14500;7200;224;1;99;100;8400;;4144;4144;1;13002;25.24;28.64;30,3;BCS1388054;1;3
009803;08.12.2020;16:19:38;Stop          ;03.12.2018;FEY;;LION;49;14500;7200;224;3;97;100;8400;;4152;4153;1;13002;27.04;30.04;31,9;BCS1388054;1;3
009803;03.03.2021;08:17:08;Normalcharge  ;03.12.2018;FEY;;LION;49;14500;7200;192;3;95;98;8400;;4116;4117;1;12998;22.64;23.34;23,5;BCS1388054;1;9
009803;04.03.2021;07:53:51;Stop          ;03.12.2018;FEY;;LION;49;14500;7200;192;3;95;98;8400;;4116;4116;1;12991;25.74;27.74;31,6;BCS1388054;1;9
009803;04.04.2021;11:50:33;Normalcharge  ;03.12.2018;FEY;;LION;49;14500;7200;192;3;50;52;8400;3000;3669;3669;1;12988;24.54;26.54;27,9;BCS1388054;2;18
009803;04.04.2021;11:51:48;Stop          ;03.12.2018;FEY;;LION;49;14500;7200;128;3;50;52;8400;3000;3758;3707;1;12557;24.64;29.84;28,6;BCS1388054;2;18

File: 009844.txt
Serialnumber ; Date ; Time ; Action ; Date of Manufacture ; Manufacturer ; Battery Name ; Device-Chemistry ; Specification-Info ; Design-Capacity [mAh] ; Design-Voltage [mV] ; Battery Status ; Cycle Count ; SOC [%] ; Relativ SOC[%] ; Desired Voltage [mV]; Desired Current [mA]; Cell Voltage 1 [mV] ; Cell Voltage 2 [mV] ; Max_Error [%] ; Busvoltage[mV] ; Battery Temperature [°C] ; Charger Temperature [°C] ; Batterysystem ; Case ; PLace
009844;12.01.2021;04:17:47;Charge to 90% ;04.12.2018;FEY;;LION;49;14500;7200;224;5;96;99;8400;;4129;4129;1;13026;22.54;23.84;23,8;BCS1388054;7;17
009844;12.01.2021;04:57:20;Stop          ;04.12.2018;FEY;;LION;49;14500;7200;192;5;86;90;8400;3000;4036;4037;1;13021;26.44;32.14;31,5;BCS1388054;7;17
009844;12.01.2021;05:22:01;Cycle         ;04.12.2018;FEY;;LION;49;14500;7200;192;5;86;90;8400;3000;4049;4050;1;13021;26.24;27.64;30,4;BCS1388054;7;17
009844;13.01.2021;08:19:29;Stop          ;04.12.2018;FEY;;LION;49;14500;7200;224;6;95;100;8400;;4155;4155;1;13023;26.04;27.64;30,7;BCS1388054;7;17
009844;22.02.2021;17:31:46;Normalcharge  ;04.12.2018;FEY;;LION;49;14500;7200;192;7;46;49;8400;3000;3656;3657;1;13005;25.94;26.74;31,6;BCS1388054;1;7
009844;22.02.2021;23:06:28;Stop          ;04.12.2018;FEY;;LION;49;14500;7200;224;7;96;100;8400;;4155;4156;1;13007;26.34;27.64;30,6;BCS1388054;1;7
009844;04.04.2021;11:50:10;Normalcharge  ;04.12.2018;FEY;;LION;49;14500;7200;192;7;53;55;8400;3000;3694;3696;1;13003;24.54;25.24;27,8;BCS1388054;5;6
009844;04.04.2021;11:51:30;Stop          ;04.12.2018;FEY;;LION;49;14500;7200;128;7;54;55;8400;3000;3783;3737;1;12671;24.54;27.44;28,5;BCS1388054;5;6