Folder: Battery_sort_V2/V1/reader/Batterieverzeichnis (part 2)

File: 009631.txt
Serialnumber ; Date ; Time ; Action ; Date of Manufacture ; Manufacturer ; Battery Name ; Device-Chemistry ; Specification-Info ; Design-Capacity [mAh] ; Design-Voltage [mV] ; Battery Status ; Cycle Count ; SOC [%] ; Relativ SOC[%] ; Desired Voltage [mV]; Desired Current [mA]; Cell Voltage 1 [mV] ; Cell Voltage 2 [mV] ; Max_Error [%] ; Busvoltage[mV] ; Battery Temperature [°C] ; Charger Temperature [°C] ; Batterysystem ; Case ; PLace
009631;10.12.2019;15:29:01;Charge to 30% ;04.12.2018;FEY;;LION;49;14500;7200;224;44;93;100;8400;;4130;4130;1;13023;22.64;24.54;27,1;BCS1388054;5;8
009631;10.12.2019;20:48:54;Stop          ;04.12.2018;FEY;;LION;49;14500;7200;192;45;29;30;8400;3000;3559;3559;1;13020;34.24;33.94;33,1;BCS1388054;5;8
009631;11.12.2019;08:48:53;Fastcharge    ;04.12.2018;FEY;;LION;49;14500;7200;192;45;29;30;8400;3000;3568;3567;1;13020;26.84;28.24;31,9;BCS1388054;5;8
009631;11.12.2019;13:40:11;Stop          ;04.12.2018;FEY;;LION;49;14500;7200;224;45;95;100;8400;;4163;4163;1;13020;31.04;30.94;32,4;BCS1388054;5;8
009631;11.12.2019;15:46:40;Charge to 10% ;04.12.2018;FEY;;LION;49;14500;7200;224;45;96;100;8400;;4154;4154;1;13020;27.64;28.64;31,4;BCS1388054;5;8
009631;11.12.2019;22:49:07;Stop          ;04.12.2018;FEY;;LION;49;14500;7200;192;46;10;10;8400;3000;3357;3356;1;13019;35.14;34.64;33,5;BCS1388054;5;8
009631;12.12.2019;08:45:10;Normalcharge  ;04.12.2018;FEY;;LION;49;14500;7200;192;46;9;10;8400;3000;3366;3366;1;13020;26.94;28.44;31,7;BCS1388054;5;8
009631;12.12.2019;16:41:20;Stop          ;04.12.2018;FEY;;LION;49;14500;7200;224;46;96;100;8400;;4160;4160;1;13020;29.94;30.14;31,6;BCS1388054;5;8
009631;13.12.2019;10:48:05;Charge to 10% ;04.12.2018;FEY;;LION;49;14500;7200;224;46;96;100;8400;;4148;4148;1;13019;26.94;28.54;32,0;BCS1388054;5;8
009631;13.12.2019;15:40:55;Stop          ;04.12.2018;FEY;;LION;49;14500;7200;192;47;35;37;8400;3000;3504;3555;1;13524;33.34;38.74;34,6;BCS1388054;5;8
009631;13.12.2019;15:41:42;Cycle         ;04.12.2018;FEY;;LION;49;14500;7200;192;47;35;37;8400;3000;3585;3584;1;13018;33.24;36.64;34,5;BCS1388054;5;8
009631;14.12.2019;22:39:35;Stop          ;04.12.2018;FEY;;LION;49;14500;7200;224;48;93;99;8400;;4152;4152;1;13019;27.04;28.34;31,7;BCS1388054;5;8
009631;16.12.2019;07:43:20;Charge to 10% ;04.12.2018;FEY;;LION;49;14500;7200;224;48;94;100;8400;;4145;4146;1;13020;26.74;27.64;31,9;BCS1388054;5;8
009631;16.12.2019;14:34:29;Stop          ;04.12.2018;FEY;;LION;49;14500;7200;192;49;10;10;8400;3000;3364;3365;1;13020;33.24;33.34;32,5;BCS1388054;5;8
009631;16.12.2019;14:44:17;Charge to 90% ;04.12.2018;FEY;;LION;49;14500;7200;192;49;10;10;8400;3000;3368;3368;1;13020;32.54;31.04;31,9;BCS1388054;5;8
009631;16.12.2019;20:48:55;Stop          ;04.12.2018;FEY;;LION;49;14500;7200;192;49;84;90;8400;3000;4057;4059;1;13021;32.84;32.64;31,9;BCS1388054;5;8
009631;17.12.2019;08:37:53;Fastcharge    ;04.12.2018;FEY;;LION;49;14500;7200;192;49;84;90;8400;3000;4046;4047;1;13020;26.84;28.24;31,6;BCS1388054;5;8
009631;17.12.2019;10:33:46;Stop          ;04.12.2018;FEY;;LION;49;14500;7200;224;49;95;100;8400;;4158;4158;1;13019;28.64;29.34;31,1;BCS1388054;5;8
009631;17.12.2019;10:33:46;Stop          ;04.12.2018;FEY;;LION;49;14500;7200;224;49;95;100;8400;;4158;4158;1;13019;28.64;29.34;31,1;BCS1388054;5;8
009631;17.12.2019;13:38:36;Charge to 10% ;04.12.2018;FEY;;LION;49;14500;7200;224;49;95;100;8400;;4149;4149;1;13020;27.14;28.24;30,8;BCS1388054;5;8
009631;17.12.2019;20:33:18;Stop          ;04.12.2018;FEY;;LION;49;14500;7200;192;50;10;10;8400;3000;3363;3363;1;13019;35.14;34.74;34,5;BCS1388054;5;8
009631;18.12.2019;08:31:30;Fastcharge    ;04.12.2018;FEY;;LION;49;14500;7200;192;50;10;10;8400;3000;3373;3373;1;13020;26.94;28.34;31,6;BCS1388054;5;8
009631;18.12.2019;14:29:27;Stop          ;04.12.2018;FEY;;LION;49;14500;7200;224;50;95;100;8400;;4161;4161;1;13021;30.94;30.54;31,7;BCS1388054;5;8
009631;19.12.2019;08:24:02;Charge to 60% ;04.12.2018;FEY;;LION;49;14500;7200;224;50;96;100;8400;;4149;4149;1;13020;26.94;28.24;31,5;BCS1388054;5;8
009631;19.12.2019;11:31:09;Stop          ;04.12.2018;FEY;;LION;49;14500;7200;192;50;58;60;8400;3000;3769;3769;1;13019;34.74;34.94;34,4;BCS1388054;5;8
009631;19.12.2019;12:16:49;Cycle         ;04.12.2018;FEY;;LION;49;14500;7200;192;50;58;60;8400;3000;3778;3779;1;13019;31.34;30.64;32,7;BCS1388054;5;8
009631;20.12.2019;17:27:50;Stop          ;04.12.2018;FEY;;LION;49;14500;7200;224;52;94;100;8400;;4152;4152;1;13021;27.34;28.34;31,0;BCS1388054;5;8
009631;06.01.2020;06:34:55;Charge to 60% ;04.12.2018;FEY;;LION;49;14500;7200;192;52;92;98;8400;;4122;4122;1;13021;27.24;28.44;31,9;BCS1388054;5;8
009631;06.01.2020;09:30:26;Stop          ;04.12.2018;FEY;;LION;49;14500;7200;192;52;57;60;8400;3000;3772;3772;1;13020;33.84;34.34;33,9;BCS1388054;5;8
009631;06.01.2020;09:50:42;Fastcharge    ;04.12.2018;FEY;;LION;49;14500;7200;192;52;57;60;8400;3000;3780;3781;1;13021;32.44;31.24;32,7;BCS1388054;5;8
009631;06.01.2020;13:09:56;Stop          ;04.12.2018;FEY;;LION;49;14500;7200;224;52;94;100;8400;;4159;4159;1;13021;30.44;30.14;31,4;BCS1388054;5;8

File: 009669.txt
Serialnumber ; Date ; Time ; Action ; Date of Manufacture ; Manufacturer ; Battery Name ; Device-Chemistry ; Specification-Info ; Design-Capacity [mAh] ; Design-Voltage [mV] ; Battery Status ; Cycle Count ; SOC [%] ; Relativ SOC[%] ; Desired Voltage [mV]; Desired Current [mA]; Cell Voltage 1 [mV] ; Cell Voltage 2 [mV] ; Max_Error [%] ; Busvoltage[mV] ; Battery Temperature [°C] ; Charger Temperature [°C] ; Batterysystem ; Case ; PLace
009669;10.12.2019;15:29:01;Charge to 30% ;03.12.2018;FEY;;LION;49;14500;7200;224;48;94;100;8400;;4130;4129;1;13018;22.14;24.04;27,1;BCS1388054;5;17
009669;10.12.2019;20:48:54;Stop          ;03.12.2018;FEY;;LION;49;14500;7200;192;49;29;30;8400;3000;3559;3558;1;13016;33.24;34.24;33,1;BCS1388054;5;17
009669;11.12.2019;08:48:53;Fastcharge    ;03.12.2018;FEY;;LION;49;14500;7200;192;49;29;30;8400;3000;3569;3569;1;13015;26.04;27.74;31,9;BCS1388054;5;17
009669;11.12.2019;13:40:11;Stop          ;03.12.2018;FEY;;LION;49;14500;7200;224;49;95;100;8400;;4163;4163;1;13016;29.94;30.94;32,4;BCS1388054;5;17
009669;11.12.2019;15:46:40;Charge to 10% ;03.12.2018;FEY;;LION;49;14500;7200;224;49;97;100;8400;;4154;4153;1;13016;26.94;28.14;31,4;BCS1388054;5;17
009669;11.12.2019;22:49:07;Stop          ;03.12.2018;FEY;;LION;49;14500;7200;192;50;10;10;8400;3000;3255;3307;1;13015;34.24;39.04;33,5;BCS1388054;5;17
009669;12.12.2019;08:45:10;Normalcharge  ;03.12.2018;FEY;;LION;49;14500;7200;192;50;9;10;8400;3000;3364;3364;1;13015;26.24;27.94;31,7;BCS1388054;5;17
009669;12.12.2019;16:41:20;Stop          ;03.12.2018;FEY;;LION;49;14500;7200;224;50;97;100;8400;;4161;4162;1;13015;29.04;29.94;31,6;BCS1388054;5;17
009669;13.12.2019;10:48:05;Charge to 10% ;03.12.2018;FEY;;LION;49;14500;7200;224;50;97;100;8400;;4148;4148;1;13016;26.24;28.04;32,0;BCS1388054;5;17
009669;13.12.2019;15:40:55;Stop          ;03.12.2018;FEY;;LION;49;14500;7200;192;50;36;37;8400;3000;3508;3558;1;13535;32.74;39.44;34,6;BCS1388054;5;17
009669;13.12.2019;15:41:42;Cycle         ;03.12.2018;FEY;;LION;49;14500;7200;192;50;36;37;8400;3000;3588;3588;1;13015;32.74;37.04;34,5;BCS1388054;5;17
009669;14.12.2019;22:39:35;Stop          ;03.12.2018;FEY;;LION;49;14500;7200;224;52;93;99;8400;;4151;4149;1;13016;26.34;27.84;31,7;BCS1388054;5;17
009669;16.12.2019;07:43:20;Charge to 10% ;03.12.2018;FEY;;LION;49;14500;7200;224;52;94;100;8400;;4145;4144;1;13017;26.04;27.24;31,9;BCS1388054;5;17
009669;16.12.2019;14:34:29;Stop          ;03.12.2018;FEY;;LION;49;14500;7200;192;53;10;10;8400;3000;3270;3321;1;13016;32.64;37.54;32,5;BCS1388054;5;17
009669;16.12.2019;14:44:17;Charge to 90% ;03.12.2018;FEY;;LION;49;14500;7200;192;53;10;10;8400;3000;3368;3368;1;13017;31.84;30.84;31,9;BCS1388054;5;17
009669;16.12.2019;20:48:55;Stop          ;03.12.2018;FEY;;LION;49;14500;7200;128;53;85;90;8400;3000;4067;4069;1;13018;31.94;34.74;31,9;BCS1388054;5;17
009669;17.12.2019;08:37:54;Fastcharge    ;03.12.2018;FEY;;LION;49;14500;7200;192;53;85;90;8400;3000;4048;4048;1;13016;26.14;27.74;31,6;BCS1388054;5;17
009669;17.12.2019;10:33:46;Stop          ;03.12.2018;FEY;;LION;49;14500;7200;224;53;95;100;8400;;4160;4161;1;13017;27.94;29.14;31,1;BCS1388054;5;17
009669;17.12.2019;10:33:46;Stop          ;03.12.2018;FEY;;LION;49;14500;7200;224;53;95;100;8400;;4160;4161;1;13017;27.94;29.14;31,1;BCS1388054;5;17
009669;17.12.2019;13:38:36;Charge to 10% ;03.12.2018;FEY;;LION;49;14500;7200;224;53;95;100;8400;;4150;4150;1;13017;26.44;27.74;30,8;BCS1388054;5;17
009669;17.12.2019;20:33:18;Stop          ;03.12.2018;FEY;;LION;49;14500;7200;192;54;10;10;8400;3000;3363;3364;1;13016;34.14;35.64;34,5;BCS1388054;5;17
009669;18.12.2019;08:31:30;Fastcharge    ;03.12.2018;FEY;;LION;49;14500;7200;192;54;10;10;8400;3000;3375;3376;1;13017;26.24;27.94;31,6;BCS1388054;5;17
009669;18.12.2019;14:29:28;Stop          ;03.12.2018;FEY;;LION;49;14500;7200;224;54;96;100;8400;;4161;4162;1;13017;29.94;30.44;31,7;BCS1388054;5;17
009669;19.12.2019;08:24:02;Charge to 60% ;03.12.2018;FEY;;LION;49;14500;7200;224;54;96;100;8400;;4149;4150;1;13016;26.14;27.74;31,5;BCS1388054;5;17
009669;19.12.2019;11:31:09;Stop          ;03.12.2018;FEY;;LION;49;14500;7200;192;55;58;60;8400;3000;3766;3767;1;13016;33.74;35.54;34,4;BCS1388054;5;17
009669;19.12.2019;12:16:49;Cycle         ;03.12.2018;FEY;;LION;49;14500;7200;192;55;58;60;8400;3000;3780;3782;1;13017;30.34;30.24;32,7;BCS1388054;5;17
009669;20.12.2019;17:27:50;Stop          ;03.12.2018;FEY;;LION;49;14500;7200;224;56;94;100;8400;;4152;4151;1;13017;26.64;27.84;31,0;BCS1388054;5;17
009669;06.01.2020;06:34:55;Charge to 60% ;03.12.2018;FEY;;LION;49;14500;7200;224;56;93;99;8400;;4123;4122;1;13017;26.44;27.94;31,9;BCS1388054;5;17
009669;06.01.2020;09:30:26;Stop          ;03.12.2018;FEY;;LION;49;14500;7200;192;56;57;60;8400;3000;3763;3763;1;13017;32.94;36.24;33,9;BCS1388054;5;17
009669;06.01.2020;09:50:42;Fastcharge    ;03.12.2018;FEY;;LION;49;14500;7200;192;56;57;60;8400;3000;3779;3779;1;13017;31.44;31.04;32,7;BCS1388054;5;17
009669;06.01.2020;13:09:56;Stop          ;03.12.2018;FEY;;LION;49;14500;7200;224;56;95;100;8400;;4160;4161;1;13018;29.44;29.94;31,4;BCS1388054;5;17

File: 009675.txt
Serialnumber ; Date ; Time ; Action ; Date of Manufacture ; Manufacturer ; Battery Name ; Device-Chemistry ; Specification-Info ; Design-Capacity [mAh] ; Design-Voltage [mV] ; Battery Status ; Cycle Count ; SOC [%] ; Relativ SOC[%] ; Desired Voltage [mV]; Desired Current [mA]; Cell Voltage 1 [mV] ; Cell Voltage 2 [mV] ; Max_Error [%] ; Busvoltage[mV] ; Battery Temperature [°C] ; Charger Temperature [°C] ; Batterysystem ; Case ; PLace
009675;12.01.2021;04:17:28;Ladung auf 90% ;03.12.2018;FEY;;LION;49;14500;7200;192;2;97;97;8400;;4129;4128;1;13009;22.44;23.04;23,6;BCS1388054;3;4
009675;12.01.2021;04:57:30;Stop           ;03.12.2018;FEY;;LION;49;14500;7200;192;2;91;90;8400;3000;4062;4062;1;13005;26.34;28.94;31,5;BCS1388054;3;4
009675;12.01.2021;05:21:45;Cycle          ;03.12.2018;FEY;;LION;49;14500;7200;192;2;91;90;8400;3000;4066;4066;1;13005;26.54;27.44;30,4;BCS1388054;3;4
009675;13.01.2021;08:23:25;Stop           ;03.12.2018;FEY;;LION;49;14500;7200;224;4;97;100;8400;;4156;4156;1;13004;26.44;27.44;31,4;BCS1388054;3;4
009675;03.03.2021;08:17:46;Normalcharge  ;03.12.2018;FEY;;LION;49;14500;7200;192;5;26;26;8400;3000;3520;3520;1;13028;22.54;23.04;23,6;BCS1388054;7;11
009675;03.03.2021;10:54:05;Stop          ;03.12.2018;FEY;;LION;49;14500;7200;128;5;58;59;8400;3000;3856;3808;1;12691;29.54;31.84;31,4;BCS1388054;7;11
009675;03.03.2021;10:55:49;Normalcharge  ;03.12.2018;FEY;;LION;49;14500;7200;192;5;58;60;8400;3000;3771;3772;1;13020;29.44;29.84;30,6;BCS1388054;7;11
009675;03.03.2021;17:03:24;Stop          ;03.12.2018;FEY;;LION;49;14500;7200;224;5;98;100;8400;;4153;4151;1;13023;25.54;26.44;31,4;BCS1388054;7;11

File: 009709.txt
Serialnumber ; Date ; Time ; Action ; Date of Manufacture ; Manufacturer ; Battery Name ; Device-Chemistry ; Specification-Info ; Design-Capacity [mAh] ; Design-Voltage [mV] ; Battery Status ; Cycle Count ; SOC [%] ; Relativ SOC[%] ; Desired Voltage [mV]; Desired Current [mA]; Cell Voltage 1 [mV] ; Cell Voltage 2 [mV] ; Max_Error [%] ; Busvoltage[mV] ; Battery Temperature [°C] ; Charger Temperature [°C] ; Batterysystem ; Case ; PLace
009709;07.12.2020;04:14:32;Cycle         ;04.12.2018;FEY;;LION;49;14500;7200;192;4;96;98;8400;;4143;4142;1;13010;26.04;28.24;30,3;BCS1388054;5;5
009709;08.12.2020;16:20:01;Stop          ;04.12.2018;FEY;;LION;49;14500;7200;192;4;96;98;8400;;4141;4140;1;13010;28.04;29.64;31,7;BCS1388054;5;5
009709;12.01.2021;04:17:47;Charge to 90% ;04.12.2018;FEY;;LION;49;14500;7200;192;4;95;97;8400;;4126;4125;1;13030;23.24;23.24;23,8;BCS1388054;7;13
009709;12.01.2021;04:57:20;Stop          ;04.12.2018;FEY;;LION;49;14500;7200;192;4;90;90;8400;3000;4060;4059;1;13025;26.84;29.44;31,5;BCS1388054;7;13
009709;12.01.2021;05:22:01;Cycle         ;04.12.2018;FEY;;LION;49;14500;7200;192;4;90;90;8400;3000;4065;4065;1;13026;27.04;27.84;30,4;BCS1388054;7;13
009709;13.01.2021;08:19:29;Stop          ;04.12.2018;FEY;;LION;49;14500;7200;224;5;97;100;8400;;4155;4154;1;13027;26.94;27.64;30,7;BCS1388054;7;13
009709;22.02.2021;17:31:46;Normalcharge  ;04.12.2018;FEY;;LION;49;14500;7200;192;5;71;73;8400;3000;3880;3880;1;12995;26.64;28.24;31,6;BCS1388054;1;15
009709;22.02.2021;23:06:28;Stop          ;04.12.2018;FEY;;LION;49;14500;7200;224;5;97;100;8400;;4152;4151;1;12997;27.04;29.44;30,6;BCS1388054;1;15

File: 009742.txt
Serialnumber ; Date ; Time ; Action ; Date of Manufacture ; Manufacturer ; Battery Name ; Device-Chemistry ; Specification-Info ; Design-Capacity [mAh] ; Design-Voltage [mV] ; Battery Status ; Cycle Count ; SOC [%] ; Relativ SOC[%] ; Desired Voltage [mV]; Desired Current [mA]; Cell Voltage 1 [mV] ; Cell Voltage 2 [mV] ; Max_Error [%] ; Busvoltage[mV] ; Battery Temperature [°C] ; Charger Temperature [°C] ; Batterysystem ; Case ; PLace
009742;01.12.2020;07:00:16;Cycle         ;04.12.2018;FEY;;LION;49;14500;7200;16576;3;98;100;;;4144;4143;1;13000;25.74;25.34;26,7;BCS1388054;1;4
009742;01.12.2020;11:17:17;Stop          ;04.12.2018;FEY;;LION;49;14500;7200;16576;3;98;100;;;4143;4142;1;12994;26.94;27.64;28,8;BCS1388054;1;4
009742;12.01.2021;04:17:40;Charge to 90% ;04.12.2018;FEY;;LION;49;14500;7200;16576;3;96;99;;;4126;4125;1;13009;23.34;22.84;23,6;BCS1388054;6;5
009742;12.01.2021;05:00:55;Stop          ;04.12.2018;FEY;;LION;49;14500;7200;192;3;83;90;8400;3000;4039;4036;1;13003;27.84;27.34;31,2;BCS1388054;6;5
009742;12.01.2021;05:21:57;Cycle         ;04.12.2018;FEY;;LION;49;14500;7200;192;3;83;90;8400;3000;4045;4043;1;13004;27.54;26.34;30,4;BCS1388054;6;5
009742;13.01.2021;08:31:18;Stop          ;04.12.2018;FEY;;LION;49;14500;7200;224;5;95;100;8400;;4154;4154;1;13004;27.04;26.44;31,1;BCS1388054;6;5
009742;21.02.2021;13:43:49;Normalcharge  ;04.12.2018;FEY;;LION;49;14500;7200;224;5;94;99;8400;;4131;4130;1;13007;23.14;22.34;27,7;BCS1388054;3;16
009742;21.02.2021;20:44:52;Stop           ;04.12.2018;FEY;;LION;49;14500;7200;224;5;94;99;8400;;4131;4130;1;13001;26.94;26.84;31,2;BCS1388054;3;16