Folder: Battery_sort_V2/V1/reader/Batterieverzeichnis_new

Note: V1/reader/Batterieverzeichnis_new/009547.txt
Serialnumber ; Date ; Time ; Action ; Date of Manufacture ; Manufacturer ; Battery Name ; Device-Chemistry ; Specification-Info ; Design-Capacity [mAh] ; Design-Voltage [mV] ; Battery Status ; Cycle Count ; SOC [%] ; Relativ SOC[%] ; Desired Voltage [mV]; Desired Current [mA]; Cell Voltage 1 [mV] ; Cell Voltage 2 [mV] ; Max_Error [%] ; Busvoltage[mV] ; Battery Temperature [°C] ; Charger Temperature [°C] ; Batterysystem ; Case ; PLace
009547;30.11.2020;09:42:55;Stop          ;03.12.2018;FEY;;LION;49;14500;7200;224;3;98;100;8400;;4154;4152;1;13029;27.54;28.14;31,7;BCS1388054;7;16
009547;07.02.2021;08:46:42;Normalcharge  ;03.12.2018;FEY;;LION;49;14500;7200;192;3;97;98;8400;;4122;4120;1;13000;23.64;25.04;29,2;BCS1388054;1;10
009547;07.02.2021;11:52:07;Stop          ;03.12.2018;FEY;;LION;49;14500;7200;192;3;97;98;8400;;4122;4120;1;13000;25.64;26.04;29,7;BCS1388054;1;10
009547;03.03.2021;08:17:21;Normalcharge  ;03.12.2018;FEY;;LION;49;14500;7200;192;3;93;94;8400;3000;4079;4078;1;13012;23.14;23.14;23,5;BCS1388054;3;5
009547;04.03.2021;07:53:39;Stop           ;03.12.2018;FEY;;LION;49;14500;7200;224;3;99;100;8400;;4147;4145;1;13006;26.34;27.14;31,5;BCS1388054;3;5

Note: V1/reader/Batterieverzeichnis_new/009580.txt
Serialnumber ; Date ; Time ; Action ; Date of Manufacture ; Manufacturer ; Battery Name ; Device-Chemistry ; Specification-Info ; Design-Capacity [mAh] ; Design-Voltage [mV] ; Battery Status ; Cycle Count ; SOC [%] ; Relativ SOC[%] ; Desired Voltage [mV]; Desired Current [mA]; Cell Voltage 1 [mV] ; Cell Voltage 2 [mV] ; Max_Error [%] ; Busvoltage[mV] ; Battery Temperature [°C] ; Charger Temperature [°C] ; Batterysystem ; Case ; PLace
009580;12.01.2021;04:17:22;Charge to 90% ;04.12.2018;FEY;;LION;49;14500;7200;192;2;93;95;8400;3000;4104;4103;1;13000;23.24;23.24;23,5;BCS1388054;2;13
009580;12.01.2021;04:54:21;Stop          ;04.12.2018;FEY;;LION;49;14500;7200;192;2;89;90;8400;3000;4057;4056;1;12992;26.34;30.34;31,9;BCS1388054;2;13
009580;12.01.2021;05:21:40;Cycle         ;04.12.2018;FEY;;LION;49;14500;7200;192;2;89;90;8400;3000;4059;4059;1;12994;26.94;28.34;30,6;BCS1388054;2;13
009580;13.01.2021;08:20:19;Stop          ;04.12.2018;FEY;;LION;49;14500;7200;224;4;97;100;8400;;4157;4156;1;12993;27.14;28.24;30,8;BCS1388054;2;13
009580;21.02.2021;13:43:49;Normalcharge  ;04.12.2018;FEY;;LION;49;14500;7200;192;4;59;61;8400;3000;3749;3744;1;13015;23.04;22.44;27,7;BCS1388054;3;17
009580;21.02.2021;20:44:52;Stop           ;04.12.2018;FEY;;LION;49;14500;7200;224;4;97;100;8400;;4153;4151;1;13010;26.74;27.24;31,2;BCS1388054;3;17

Note: V1/reader/Batterieverzeichnis_new/009591.txt
Serialnumber ; Date ; Time ; Action ; Date of Manufacture ; Manufacturer ; Battery Name ; Device-Chemistry ; Specification-Info ; Design-Capacity [mAh] ; Design-Voltage [mV] ; Battery Status ; Cycle Count ; SOC [%] ; Relativ SOC[%] ; Desired Voltage [mV]; Desired Current [mA]; Cell Voltage 1 [mV] ; Cell Voltage 2 [mV] ; Max_Error [%] ; Busvoltage[mV] ; Battery Temperature [°C] ; Charger Temperature [°C] ; Batterysystem ; Case ; PLace
009591;29.11.2020;04:25:09;Cycle         ;03.12.2018;FEY;;LION;49;14500;7200;192;3;20;20;8400;3000;3471;3469;1;13003;24.74;26.14;25,6;BCS1388054;1;3
009591;07.02.2021;08:47:00;Normalcharge  ;03.12.2018;FEY;;LION;49;14500;7200;192;4;89;92;8400;3000;4051;4050;1;13012;23.14;25.84;29,2;BCS1388054;4;10
009591;07.02.2021;11:52:20;Stop          ;03.12.2018;FEY;;LION;49;14500;7200;224;4;98;100;8400;;4151;4149;1;13011;25.44;27.04;29,7;BCS1388054;4;10
009591;03.03.2021;08:17:21;Normalcharge  ;03.12.2018;FEY;;LION;49;14500;7200;192;4;89;92;8400;3000;4063;4062;1;13023;22.74;22.74;23,5;BCS1388054;3;14
009591;04.03.2021;07:53:40;Stop           ;03.12.2018;FEY;;LION;49;14500;7200;224;4;97;100;8400;;4147;4146;1;13015;26.14;27.74;31,5;BCS1388054;3;14

Note: V1/reader/Batterieverzeichnis_new/009592.txt
Serialnumber ; Date ; Time ; Action ; Date of Manufacture ; Manufacturer ; Battery Name ; Device-Chemistry ; Specification-Info ; Design-Capacity [mAh] ; Design-Voltage [mV] ; Battery Status ; Cycle Count ; SOC [%] ; Relativ SOC[%] ; Desired Voltage [mV]; Desired Current [mA]; Cell Voltage 1 [mV] ; Cell Voltage 2 [mV] ; Max_Error [%] ; Busvoltage[mV] ; Battery Temperature [°C] ; Charger Temperature [°C] ; Batterysystem ; Case ; PLace
009592;07.12.2020;04:14:21;Cycle         ;04.12.2018;FEY;;LION;49;14500;7200;224;3;97;99;8400;;4155;4155;1;12998;26.04;28.34;30,3;BCS1388054;2;10
009592;08.12.2020;16:19:44;Stop          ;04.12.2018;FEY;;LION;49;14500;7200;224;5;97;100;8400;;4151;4151;1;12998;28.14;29.74;31,9;BCS1388054;2;10
009592;03.03.2021;08:17:08;Normalcharge  ;04.12.2018;FEY;;LION;49;14500;7200;192;5;95;97;8400;;4111;4111;1;13000;23.44;22.84;23,5;BCS1388054;1;11
009592;04.03.2021;07:53:51;Stop          ;04.12.2018;FEY;;LION;49;14500;7200;192;5;95;97;8400;;4111;4110;1;12992;26.34;26.44;31,6;BCS1388054;1;11

Note: V1/reader/Batterieverzeichnis_new/009603.txt
009603;29.11.2020;04:33:37;Cycle          ;03.12.2018;FEY;;LION;49;14500;7200;224;2;98;99;8400;;4122;4123;1;13016;22.84;24.84;27,4;BCS1388054;3;3
009603;07.02.2021;08:46:42;Normalcharge  ;03.12.2018;FEY;;LION;49;14500;7200;192;3;95;98;8400;;4119;4121;1;13006;23.54;26.04;29,2;BCS1388054;1;6
009603;07.02.2021;11:52:07;Stop          ;03.12.2018;FEY;;LION;49;14500;7200;192;3;95;98;8400;;4119;4121;1;13006;25.44;26.54;29,7;BCS1388054;1;6
009603;03.03.2021;08:17:21;Normalcharge  ;03.12.2018;FEY;;LION;49;14500;7200;192;3;90;93;8400;3000;4070;4071;1;12999;22.94;23.54;23,5;BCS1388054;3;8
009603;04.03.2021;07:53:40;Stop           ;03.12.2018;FEY;;LION;49;14500;7200;224;3;97;100;8400;;4147;4149;1;12994;26.34;28.34;31,5;BCS1388054;3;8

Note: V1/reader/Batterieverzeichnis_new/009659.txt
Serialnumber ; Date ; Time ; Action ; Date of Manufacture ; Manufacturer ; Battery Name ; Device-Chemistry ; Specification-Info ; Design-Capacity [mAh] ; Design-Voltage [mV] ; Battery Status ; Cycle Count ; SOC [%] ; Relativ SOC[%] ; Desired Voltage [mV]; Desired Current [mA]; Cell Voltage 1 [mV] ; Cell Voltage 2 [mV] ; Max_Error [%] ; Busvoltage[mV] ; Battery Temperature [°C] ; Charger Temperature [°C] ; Batterysystem ; Case ; PLace
009659;07.02.2021;08:47:07;Normalcharge  ;03.12.2018;FEY;;LION;49;14500;7200;192;3;85;86;8400;3000;4005;4005;1;13013;22.84;26.54;29,2;BCS1388054;5;2
009659;07.02.2021;11:50:11;Stop          ;03.12.2018;FEY;;LION;49;14500;7200;224;3;99;100;8400;;4154;4153;1;13013;25.14;28.04;30,0;BCS1388054;5;2
009659;03.03.2021;08:17:17;Normalcharge  ;03.12.2018;FEY;;LION;49;14500;7200;192;3;92;95;8400;3000;4087;4088;1;13008;22.54;23.04;23,5;BCS1388054;2;11
009659;04.03.2021;07:53:46;Stop          ;03.12.2018;FEY;;LION;49;14500;7200;224;3;98;100;8400;;4148;4147;1;13000;25.74;26.74;31,6;BCS1388054;2;11

Note: V1/reader/Batterieverzeichnis_new/009673.txt
Serialnumber ; Date ; Time ; Action ; Date of Manufacture ; Manufacturer ; Battery Name ; Device-Chemistry ; Specification-Info ; Design-Capacity [mAh] ; Design-Voltage [mV] ; Battery Status ; Cycle Count ; SOC [%] ; Relativ SOC[%] ; Desired Voltage [mV]; Desired Current [mA]; Cell Voltage 1 [mV] ; Cell Voltage 2 [mV] ; Max_Error [%] ; Busvoltage[mV] ; Battery Temperature [°C] ; Charger Temperature [°C] ; Batterysystem ; Case ; PLace
009673;07.12.2020;04:14:25;Cycle          ;04.12.2018;FEY;;LION;49;14500;7200;192;2;98;98;8400;;4141;4142;1;12993;25.54;28.14;30,3;BCS1388054;3;8
009673;08.12.2020;16:19:50;Stop           ;04.12.2018;FEY;;LION;49;14500;7200;192;2;98;98;8400;;4139;4140;1;12992;27.84;29.84;31,9;BCS1388054;3;8
009673;12.01.2021;04:17:47;Charge to 90% ;04.12.2018;FEY;;LION;49;14500;7200;192;2;96;97;8400;;4124;4126;1;13032;22.94;23.34;23,8;BCS1388054;7;4
009673;12.01.2021;04:57:19;Stop          ;04.12.2018;FEY;;LION;49;14500;7200;192;2;90;90;8400;3000;4061;4061;1;13028;26.44;28.24;31,5;BCS1388054;7;4
009673;12.01.2021;05:22:01;Cycle         ;04.12.2018;FEY;;LION;49;14500;7200;192;2;90;90;8400;3000;4065;4066;1;13028;26.54;27.04;30,4;BCS1388054;7;4
009673;13.01.2021;08:19:29;Stop          ;04.12.2018;FEY;;LION;49;14500;7200;224;4;97;100;8400;;4155;4157;1;13028;26.34;27.14;30,7;BCS1388054;7;4

File: 001028.txt
Serialnumber ; Date ; Time ; Action ; Date of Manufacture ; Manufacturer ; Battery Name ; Device-Chemistry ; Specification-Info ; Design-Capacity [mAh] ; Design-Voltage [mV] ; Battery Status ; Cycle Count ; SOC [%] ; Relativ SOC[%] ; Desired Voltage [mV]; Desired Current [mA]; Cell Voltage 1 [mV] ; Cell Voltage 2 [mV] ; Max_Error [%] ; Busvoltage[mV] ; Battery Temperature [°C] ; Charger Temperature [°C] ; Batterysystem ; Case ; PLace
001028;10.12.2019;15:29:15;Charge to 30% ;28.11.2017;FEY;;LION;49;14500;7200;224;21;92;99;8400;;4123;4121;1;13038;22.44;24.44;27,1;BCS1388054;7;5
001028;10.12.2019;20:46:56;Stop          ;28.11.2017;FEY;;LION;49;14500;7200;192;22;28;30;8400;3000;3556;3554;1;13035;31.54;30.94;33,5;BCS1388054;7;5
001028;11.12.2019;08:49:12;Fastcharge    ;28.11.2017;FEY;;LION;49;14500;7200;192;22;28;30;8400;3000;3564;3562;1;13037;25.84;27.34;31,9;BCS1388054;7;5
001028;11.12.2019;13:38:42;Stop          ;28.11.2017;FEY;;LION;49;14500;7200;224;22;94;100;8400;;4163;4163;1;13036;28.54;28.84;32,7;BCS1388054;7;5
001028;11.12.2019;15:46:56;Charge to 10% ;28.11.2017;FEY;;LION;49;14500;7200;224;22;95;100;8400;;4155;4155;1;13036;26.44;27.44;31,2;BCS1388054;7;5
001028;11.12.2019;22:51:50;Stop          ;28.11.2017;FEY;;LION;49;14500;7200;192;23;10;10;8400;3000;3355;3354;1;13035;31.74;30.74;33,0;BCS1388054;7;5
001028;12.12.2019;08:45:27;Normalcharge  ;28.11.2017;FEY;;LION;49;14500;7200;192;23;9;10;8400;3000;3363;3362;1;13037;26.04;27.34;31,7;BCS1388054;7;5
001028;12.12.2019;16:41:08;Stop          ;28.11.2017;FEY;;LION;49;14500;7200;224;23;95;100;8400;;4161;4161;1;13037;27.94;28.34;31,6;BCS1388054;7;5
001028;13.12.2019;10:48:13;Charge to 10% ;28.11.2017;FEY;;LION;49;14500;7200;224;23;95;100;8400;;4150;4150;1;13038;26.04;27.64;32,0;BCS1388054;7;5
001028;13.12.2019;13:48:48;Stop          ;28.11.2017;FEY;;LION;49;14500;7200;192;23;57;60;8400;3000;3674;3727;1;13532;32.84;36.54;36,8;BCS1388054;7;5
001028;16.12.2019;07:43:34;Charge to 10% ;28.11.2017;FEY;;LION;49;14500;7200;192;23;59;62;8400;3000;3780;3780;1;13023;22.74;25.44;31,7;BCS1388054;7;12
001028;16.12.2019;11:52:34;Stop          ;28.11.2017;FEY;;LION;49;14500;7200;192;24;10;10;8400;3000;3355;3354;1;13021;30.34;30.84;34,7;BCS1388054;7;12
001028;16.12.2019;14:44:25;Charge to 90% ;28.11.2017;FEY;;LION;49;14500;7200;192;24;9;10;8400;3000;3359;3359;1;13023;27.94;28.24;31,7;BCS1388054;7;12
001028;16.12.2019;20:53:58;Stop          ;28.11.2017;FEY;;LION;49;14500;7200;192;24;83;90;8400;3000;4031;4029;1;13022;28.74;29.34;32,1;BCS1388054;7;12
001028;17.12.2019;08:38:02;Fastcharge    ;28.11.2017;FEY;;LION;49;14500;7200;192;24;83;90;8400;3000;4025;4023;1;13022;25.74;27.04;31,6;BCS1388054;7;12
001028;17.12.2019;10:36:25;Stop          ;28.11.2017;FEY;;LION;49;14500;7200;224;24;93;100;8400;;4161;4158;1;13022;26.94;27.84;31,5;BCS1388054;7;12
001028;17.12.2019;13:38:44;Charge to 10% ;28.11.2017;FEY;;LION;49;14500;7200;224;24;93;100;8400;;4152;4150;1;13023;26.04;27.04;30,8;BCS1388054;7;12
001028;17.12.2019;20:42:03;Stop          ;28.11.2017;FEY;;LION;49;14500;7200;192;25;10;10;8400;3000;3360;3358;1;13022;30.54;29.94;32,6;BCS1388054;7;12
001028;18.12.2019;08:31:43;Fastcharge    ;28.11.2017;FEY;;LION;49;14500;7200;192;25;9;10;8400;3000;3367;3365;1;13023;25.94;26.74;31,6;BCS1388054;7;12
001028;18.12.2019;14:30:48;Stop          ;28.11.2017;FEY;;LION;49;14500;7200;224;25;91;100;8400;;4159;4155;1;13022;27.84;28.14;31,6;BCS1388054;7;12
001028;19.12.2019;08:24:17;Charge to 60% ;28.11.2017;FEY;;LION;49;14500;7200;224;25;92;100;8400;;4149;4145;1;13023;25.84;27.04;31,6;BCS1388054;7;12
001028;19.12.2019;11:28:26;Stop          ;28.11.2017;FEY;;LION;49;14500;7200;192;26;56;60;8400;3000;3770;3768;1;13021;31.34;31.34;35,1;BCS1388054;7;12
001028;19.12.2019;12:16:57;Cycle         ;28.11.2017;FEY;;LION;49;14500;7200;192;26;56;60;8400;3000;3781;3778;1;13023;28.04;28.54;32,7;BCS1388054;7;12
001028;20.12.2019;17:22:28;Stop          ;28.11.2017;FEY;;LION;49;14500;7200;224;27;92;100;8400;;4153;4150;1;13022;26.04;27.34;31,9;BCS1388054;7;12
001028;06.01.2020;06:35:02;Charge to 60% ;28.11.2017;FEY;;LION;49;14500;7200;192;27;91;98;8400;;4123;4120;1;13024;25.94;27.04;31,9;BCS1388054;7;12
001028;06.01.2020;09:29:52;Stop          ;28.11.2017;FEY;;LION;49;14500;7200;192;27;56;60;8400;3000;3765;3764;1;13022;30.64;30.44;34,0;BCS1388054;7;12
001028;06.01.2020;09:50:50;Fastcharge    ;28.11.2017;FEY;;LION;49;14500;7200;192;27;56;60;8400;3000;3774;3773;1;13023;28.84;29.24;32,7;BCS1388054;7;12
001028;06.01.2020;13:05:11;Stop          ;28.11.2017;FEY;;LION;49;14500;7200;224;27;93;100;8400;;4163;4162;1;13022;27.64;28.04;32,4;BCS1388054;7;12

File: 009570.txt
Serialnumber ; Date ; Time ; Action ; Date of Manufacture ; Manufacturer ; Battery Name ; Device-Chemistry ; Specification-Info ; Design-Capacity [mAh] ; Design-Voltage [mV] ; Battery Status ; Cycle Count ; SOC [%] ; Relativ SOC[%] ; Desired Voltage [mV]; Desired Current [mA]; Cell Voltage 1 [mV] ; Cell Voltage 2 [mV] ; Max_Error [%] ; Busvoltage[mV] ; Battery Temperature [°C] ; Charger Temperature [°C] ; Batterysystem ; Case ; PLace
009570;07.12.2020;04:14:32;Cycle         ;04.12.2018;FEY;;LION;49;14500;7200;16576;3;98;98;;;4148;4147;1;12996;25.74;28.54;30,3;BCS1388054;5;7
009570;08.12.2020;16:20:01;Stop          ;04.12.2018;FEY;;LION;49;14500;7200;16576;3;98;98;;;4145;4144;1;12994;27.94;30.24;31,7;BCS1388054;5;7
009570;12.01.2021;04:17:36;Charge to 90% ;04.12.2018;FEY;;LION;49;14500;7200;16576;3;97;97;;;4131;4131;1;13018;23.04;23.24;23,6;BCS1388054;5;17
009570;12.01.2021;05:15:37;Stop          ;04.12.2018;FEY;;LION;49;14500;7200;192;3;90;90;8400;3000;4063;4062;1;13012;27.04;28.34;31,6;BCS1388054;5;17
009570;12.01.2021;05:21:53;Cycle         ;04.12.2018;FEY;;LION;49;14500;7200;192;3;90;90;8400;3000;4064;4063;1;13013;27.04;27.94;30,6;BCS1388054;5;17
009570;13.01.2021;08:31:10;Stop          ;04.12.2018;FEY;;LION;49;14500;7200;224;4;97;100;8400;;4155;4154;1;13013;26.94;27.84;31,1;BCS1388054;5;17
009570;21.02.2021;13:43:32;Normalcharge  ;04.12.2018;FEY;;LION;49;14500;7200;224;4;96;99;8400;;4132;4131;1;13003;23.24;24.84;27,5;BCS1388054;2;14
009570;21.02.2021;19:27:00;Stop          ;04.12.2018;FEY;;LION;49;14500;7200;224;4;96;99;8400;;4132;4131;1;13002;27.04;28.24;31,1;BCS1388054;2;14

File: 009579.txt
Serialnumber ; Date ; Time ; Action ; Date of Manufacture ; Manufacturer ; Battery Name ; Device-Chemistry ; Specification-Info ; Design-Capacity [mAh] ; Design-Voltage [mV] ; Battery Status ; Cycle Count ; SOC [%] ; Relativ SOC[%] ; Desired Voltage [mV]; Desired Current [mA]; Cell Voltage 1 [mV] ; Cell Voltage 2 [mV] ; Max_Error [%] ; Busvoltage[mV] ; Battery Temperature [°C] ; Charger Temperature [°C] ; Batterysystem ; Case ; PLace
009579;07.12.2020;04:14:32;Cycle         ;04.12.2018;FEY;;LION;49;14500;7200;192;3;98;98;8400;;4138;4139;1;13010;25.74;27.54;30,3;BCS1388054;5;9
009579;08.12.2020;16:20:01;Stop          ;04.12.2018;FEY;;LION;49;14500;7200;192;3;98;98;8400;;4137;4137;1;13008;27.94;29.14;31,7;BCS1388054;5;9
009579;12.01.2021;04:17:40;Charge to 90% ;04.12.2018;FEY;;LION;49;14500;7200;192;3;97;97;8400;;4123;4123;1;13002;23.14;24.94;23,6;BCS1388054;6;2
009579;12.01.2021;05:00:55;Stop          ;04.12.2018;FEY;;LION;49;14500;7200;192;3;90;90;8400;3000;4059;4058;1;12998;27.14;31.44;31,2;BCS1388054;6;2
009579;12.01.2021;05:21:57;Cycle         ;04.12.2018;FEY;;LION;49;14500;7200;192;3;90;90;8400;3000;4062;4061;1;12999;27.14;30.14;30,4;BCS1388054;6;2
009579;13.01.2021;08:31:18;Stop          ;04.12.2018;FEY;;LION;49;14500;7200;224;4;98;100;8400;;4155;4156;1;12997;26.94;30.24;31,1;BCS1388054;6;2
009579;22.02.2021;17:31:46;Normalcharge  ;04.12.2018;FEY;;LION;49;14500;7200;192;5;43;44;8400;3000;3621;3620;1;12991;25.74;27.54;31,6;BCS1388054;1;2
009579;22.02.2021;23:06:28;Stop          ;04.12.2018;FEY;;LION;49;14500;7200;224;5;98;100;8400;;4160;4160;1;12991;26.84;28.44;30,6;BCS1388054;1;2

File: 009642.txt
Serialnumber ; Date ; Time ; Action ; Date of Manufacture ; Manufacturer ; Battery Name ; Device-Chemistry ; Specification-Info ; Design-Capacity [mAh] ; Design-Voltage [mV] ; Battery Status ; Cycle Count ; SOC [%] ; Relativ SOC[%] ; Desired Voltage [mV]; Desired Current [mA]; Cell Voltage 1 [mV] ; Cell Voltage 2 [mV] ; Max_Error [%] ; Busvoltage[mV] ; Battery Temperature [°C] ; Charger Temperature [°C] ; Batterysystem ; Case ; PLace
009642;10.12.2019;15:28:54;Charge to 30% ;04.12.2018;FEY;;LION;49;14500;7200;224;47;93;99;8400;;4128;4129;1;13032;22.94;24.94;27,1;BCS1388054;4;16
009642;10.12.2019;20:47:57;Stop          ;04.12.2018;FEY;;LION;49;14500;7200;192;48;29;30;8400;3000;3559;3560;1;13030;34.54;34.44;33,4;BCS1388054;4;16
009642;11.12.2019;08:48:41;Fastcharge    ;04.12.2018;FEY;;LION;49;14500;7200;192;48;29;30;8400;3000;3568;3569;1;13031;26.84;28.54;31,9;BCS1388054;4;16
009642;11.12.2019;13:42:44;Stop          ;04.12.2018;FEY;;LION;49;14500;7200;224;48;95;100;8400;;4160;4161;1;13031;30.94;30.74;31,9;BCS1388054;4;16
009642;11.12.2019;15:46:31;Charge to 10% ;04.12.2018;FEY;;LION;49;14500;7200;224;48;96;100;8400;;4152;4154;1;13031;27.74;28.84;31,4;BCS1388054;4;16
009642;11.12.2019;22:50:44;Stop          ;04.12.2018;FEY;;LION;49;14500;7200;192;49;10;10;8400;3000;3357;3360;1;13031;35.24;34.34;33,2;BCS1388054;4;16
009642;12.12.2019;08:45:03;Normalcharge  ;04.12.2018;FEY;;LION;49;14500;7200;192;49;9;10;8400;3000;3366;3368;1;13031;26.94;28.64;31,9;BCS1388054;4;16
009642;12.12.2019;16:41:48;Stop          ;04.12.2018;FEY;;LION;49;14500;7200;224;49;96;100;8400;;4158;4159;1;13031;29.94;30.34;31,5;BCS1388054;4;16
009642;13.12.2019;10:48:01;Charge to 10% ;04.12.2018;FEY;;LION;49;14500;7200;224;49;95;100;8400;;4147;4148;1;13032;26.94;28.84;32,0;BCS1388054;4;16
009642;13.12.2019;15:42:25;Stop          ;04.12.2018;FEY;;LION;49;14500;7200;192;50;34;36;8400;3000;3502;3554;1;13539;33.94;38.74;34,6;BCS1388054;4;16
009642;13.12.2019;15:42:27;Cycle         ;04.12.2018;FEY;;LION;49;14500;7200;192;50;34;36;8400;3000;3502;3554;1;13538;33.94;38.74;34,6;BCS1388054;4;16
009642;14.12.2019;22:44:28;Stop          ;04.12.2018;FEY;;LION;49;14500;7200;224;51;94;100;8400;;4150;4150;1;13032;27.14;28.84;32,0;BCS1388054;4;16
009642;16.12.2019;07:43:14;Charge to 10% ;04.12.2018;FEY;;LION;49;14500;7200;224;51;94;100;8400;;4144;4144;1;13032;26.74;28.24;31,9;BCS1388054;4;16
009642;16.12.2019;14:36:44;Stop          ;04.12.2018;FEY;;LION;49;14500;7200;192;52;10;10;8400;3000;3364;3366;1;13030;33.74;33.04;32,4;BCS1388054;4;16
009642;16.12.2019;14:44:13;Charge to 90% ;04.12.2018;FEY;;LION;49;14500;7200;192;52;10;10;8400;3000;3366;3368;1;13030;33.04;31.64;31,7;BCS1388054;4;16
009642;16.12.2019;20:50:28;Stop          ;04.12.2018;FEY;;LION;49;14500;7200;192;52;84;90;8400;3000;4056;4057;1;13032;32.84;32.34;31,6;BCS1388054;4;16
009642;17.12.2019;08:37:50;Fastcharge    ;04.12.2018;FEY;;LION;49;14500;7200;192;52;84;90;8400;3000;4045;4046;1;13031;26.84;28.64;31,6;BCS1388054;4;16
009642;17.12.2019;10:31:07;Stop          ;04.12.2018;FEY;;LION;49;14500;7200;224;52;95;100;8400;;4160;4160;1;13032;28.74;29.84;31,4;BCS1388054;4;16
009642;17.12.2019;13:38:32;Charge to 10% ;04.12.2018;FEY;;LION;49;14500;7200;224;52;95;100;8400;;4149;4148;1;13031;27.14;28.54;30,8;BCS1388054;4;16
009642;17.12.2019;20:34:29;Stop          ;04.12.2018;FEY;;LION;49;14500;7200;192;53;10;10;8400;3000;3364;3366;1;13030;35.34;34.54;34,1;BCS1388054;4;16
009642;18.12.2019;08:31:26;Fastcharge    ;04.12.2018;FEY;;LION;49;14500;7200;192;53;10;10;8400;3000;3374;3376;1;13032;26.94;28.54;31,6;BCS1388054;4;16
009642;18.12.2019;14:29:12;Stop          ;04.12.2018;FEY;;LION;49;14500;7200;224;53;95;100;8400;;4160;4159;1;13031;31.04;30.94;31,9;BCS1388054;4;16
009642;19.12.2019;08:23:58;Charge to 60% ;04.12.2018;FEY;;LION;49;14500;7200;224;53;96;100;8400;;4148;4148;1;13032;26.84;28.64;31,6;BCS1388054;4;16
009642;19.12.2019;11:30:18;Stop          ;04.12.2018;FEY;;LION;49;14500;7200;192;54;58;60;8400;3000;3765;3766;1;13030;35.04;35.84;34,6;BCS1388054;4;16
009642;19.12.2019;12:16:45;Cycle         ;04.12.2018;FEY;;LION;49;14500;7200;192;54;58;60;8400;3000;3777;3779;1;13031;31.44;31.14;32,7;BCS1388054;4;16
009642;20.12.2019;17:30:48;Stop          ;04.12.2018;FEY;;LION;49;14500;7200;224;55;94;100;8400;;4151;4152;1;13033;27.34;28.44;30,6;BCS1388054;4;16
009642;06.01.2020;06:34:50;Charge to 60% ;04.12.2018;FEY;;LION;49;14500;7200;192;55;93;98;8400;;4121;4122;1;13032;27.04;28.74;31,9;BCS1388054;4;16
009642;06.01.2020;09:30:33;Stop          ;04.12.2018;FEY;;LION;49;14500;7200;192;55;57;60;8400;3000;3771;3775;1;13031;34.14;34.54;33,7;BCS1388054;4;16
009642;06.01.2020;09:50:38;Fastcharge    ;04.12.2018;FEY;;LION;49;14500;7200;192;55;57;60;8400;3000;3779;3783;1;13032;32.54;31.84;32,7;BCS1388054;4;16
009642;06.01.2020;13:09:19;Stop          ;04.12.2018;FEY;;LION;49;14500;7200;224;55;95;100;8400;;4158;4159;1;13033;30.54;30.44;31,4;BCS1388054;4;16

File: 009666.txt
Serialnumber ; Date ; Time ; Action ; Date of Manufacture ; Manufacturer ; Battery Name ; Device-Chemistry ; Specification-Info ; Design-Capacity [mAh] ; Design-Voltage [mV] ; Battery Status ; Cycle Count ; SOC [%] ; Relativ SOC[%] ; Desired Voltage [mV]; Desired Current [mA]; Cell Voltage 1 [mV] ; Cell Voltage 2 [mV] ; Max_Error [%] ; Busvoltage[mV] ; Battery Temperature [°C] ; Charger Temperature [°C] ; Batterysystem ; Case ; PLace
009666;07.12.2020;04:14:32;Cycle         ;03.12.2018;FEY;;LION;49;14500;7200;16576;3;97;98;;;4150;4150;1;13002;25.94;26.54;30,3;BCS1388054;5;6
009666;08.12.2020;16:20:01;Stop          ;03.12.2018;FEY;;LION;49;14500;7200;16576;3;97;98;;;4148;4148;1;12998;27.84;27.74;31,7;BCS1388054;5;6
009666;12.01.2021;04:17:33;Charge to 90% ;03.12.2018;FEY;;LION;49;14500;7200;16576;3;96;97;;;4132;4132;1;13009;23.24;22.74;23,6;BCS1388054;4;9
009666;12.01.2021;04:57:16;Stop          ;03.12.2018;FEY;;LION;49;14500;7200;192;3;90;90;8400;3000;4061;4061;1;13003;26.94;28.24;31,6;BCS1388054;4;9
009666;12.01.2021;05:21:49;Cycle         ;03.12.2018;FEY;;LION;49;14500;7200;192;3;90;90;8400;3000;4065;4066;1;13004;27.14;27.04;30,4;BCS1388054;4;9
009666;13.01.2021;08:19:19;Stop          ;03.12.2018;FEY;;LION;49;14500;7200;224;4;98;100;8400;;4156;4156;1;13005;27.54;27.04;30,7;BCS1388054;4;9
009666;21.02.2021;13:44:56;Normalcharge  ;03.12.2018;FEY;;LION;49;14500;7200;192;5;56;57;8400;3000;3717;3719;1;13017;22.94;22.94;27,7;BCS1388054;5;8
009666;21.02.2021;19:31:36;Stop          ;03.12.2018;FEY;;LION;49;14500;7200;224;5;98;100;8400;;4156;4155;1;13011;27.64;28.24;30,6;BCS1388054;5;8