Folder: Battery_sort_V2/V1/reader/Batterieverzeichnis

Note: V1/reader/Batterieverzeichnis/009584.txt
009584;29.11.2020;04:36:38;Cycle         ;04.12.2018;FEY;;LION;49;14500;7200;192;3;96;96;8400;;4103;4103;1;13011;23.24;24.94;27,9;BCS1388054;4;7
009584;12.01.2021;04:17:22;Charge to 90% ;04.12.2018;FEY;;LION;49;14500;7200;192;3;96;96;8400;;4091;4090;1;13008;23.34;23.34;23,5;BCS1388054;2;14
009584;12.01.2021;04:54:21;Stop          ;04.12.2018;FEY;;LION;49;14500;7200;192;3;90;90;8400;3000;4027;4027;1;13000;26.64;30.94;31,9;BCS1388054;2;14
009584;12.01.2021;05:21:40;Cycle         ;04.12.2018;FEY;;LION;49;14500;7200;192;3;90;90;8400;3000;4030;4030;1;13002;27.04;28.54;30,6;BCS1388054;2;14
009584;13.01.2021;08:20:19;Stop          ;04.12.2018;FEY;;LION;49;14500;7200;224;4;96;99;8400;;4155;4156;1;13002;27.34;28.34;30,8;BCS1388054;2;14
009584;21.02.2021;13:43:49;Normalcharge  ;04.12.2018;FEY;;LION;49;14500;7200;224;4;96;99;8400;;4132;4132;1;13007;23.34;22.94;27,7;BCS1388054;3;7
009584;21.02.2021;20:44:52;Stop           ;04.12.2018;FEY;;LION;49;14500;7200;224;4;96;99;8400;;4132;4132;1;13002;27.04;28.04;31,2;BCS1388054;3;7

Note: V1/reader/Batterieverzeichnis/009611.txt
009611;29.11.2020;04:33:37;Cycle          ;04.12.2018;FEY;;LION;49;14500;7200;224;3;100;99;8400;;4149;4146;1;13004;22.44;23.64;27,4;BCS1388054;3;16
009611;07.02.2021;08:46:42;Normalcharge  ;04.12.2018;FEY;;LION;49;14500;7200;224;5;96;99;8400;;4119;4118;1;12992;23.04;26.14;29,2;BCS1388054;1;1
009611;07.02.2021;11:52:07;Stop          ;04.12.2018;FEY;;LION;49;14500;7200;192;5;96;98;8400;;4120;4118;1;12992;25.24;27.34;29,7;BCS1388054;1;1
009611;03.03.2021;08:17:08;Normalcharge  ;04.12.2018;FEY;;LION;49;14500;7200;192;5;94;97;8400;;4102;4101;1;13005;22.64;24.34;23,5;BCS1388054;1;15
009611;04.03.2021;07:53:51;Stop          ;04.12.2018;FEY;;LION;49;14500;7200;192;5;94;96;8400;;4101;4100;1;12997;25.54;29.24;31,6;BCS1388054;1;15

Note: V1/reader/Batterieverzeichnis/009682.txt
Serialnumber ; Date ; Time ; Action ; Date of Manufacture ; Manufacturer ; Battery Name ; Device-Chemistry ; Specification-Info ; Design-Capacity [mAh] ; Design-Voltage [mV] ; Battery Status ; Cycle Count ; SOC [%] ; Relativ SOC[%] ; Desired Voltage [mV]; Desired Current [mA]; Cell Voltage 1 [mV] ; Cell Voltage 2 [mV] ; Max_Error [%] ; Busvoltage[mV] ; Battery Temperature [°C] ; Charger Temperature [°C] ; Batterysystem ; Case ; PLace
009682;07.02.2021;08:46:49;Normalcharge  ;04.12.2018;FEY;;LION;49;14500;7200;192;3;93;96;8400;;4095;4094;1;13000;23.64;26.44;29,2;BCS1388054;2;10
009682;07.02.2021;11:52:12;Stop          ;04.12.2018;FEY;;LION;49;14500;7200;192;3;93;96;8400;;4096;4095;1;13000;25.94;27.74;29,7;BCS1388054;2;10
009682;03.03.2021;08:17:40;Normalcharge  ;04.12.2018;FEY;;LION;49;14500;7200;192;3;65;67;8400;3000;3828;3826;1;12999;23.24;23.84;23,6;BCS1388054;6;18
009682;03.03.2021;11:56:52;Stop          ;04.12.2018;FEY;;LION;49;14500;7200;224;3;97;100;8400;;4161;4160;1;12992;28.04;29.84;31,7;BCS1388054;6;18

Note: V1/reader/Batterieverzeichnis/009684.txt
Serialnumber ; Date ; Time ; Action ; Date of Manufacture ; Manufacturer ; Battery Name ; Device-Chemistry ; Specification-Info ; Design-Capacity [mAh] ; Design-Voltage [mV] ; Battery Status ; Cycle Count ; SOC [%] ; Relativ SOC[%] ; Desired Voltage [mV]; Desired Current [mA]; Cell Voltage 1 [mV] ; Cell Voltage 2 [mV] ; Max_Error [%] ; Busvoltage[mV] ; Battery Temperature [°C] ; Charger Temperature [°C] ; Batterysystem ; Case ; PLace
009684;07.02.2021;08:46:42;Normalcharge  ;03.12.2018;FEY;;LION;49;14500;7200;192;4;96;98;8400;;4119;4119;1;13005;23.04;25.84;29,2;BCS1388054;1;7
009684;07.02.2021;11:52:07;Stop          ;03.12.2018;FEY;;LION;49;14500;7200;192;4;96;98;8400;;4118;4118;1;13005;25.24;27.04;29,7;BCS1388054;1;7
009684;03.03.2021;08:17:29;Normalcharge  ;03.12.2018;FEY;;LION;49;14500;7200;192;4;88;90;8400;3000;4043;4043;1;13000;22.54;23.64;23,5;BCS1388054;4;3
009684;03.03.2021;10:32:46;Stop          ;03.12.2018;FEY;;LION;49;14500;7200;224;4;98;100;8400;;4155;4155;1;12993;27.44;30.34;32,0;BCS1388054;4;3

Note: V1/reader/Batterieverzeichnis/009754.txt
Serialnumber ; Date ; Time ; Action ; Date of Manufacture ; Manufacturer ; Battery Name ; Device-Chemistry ; Specification-Info ; Design-Capacity [mAh] ; Design-Voltage [mV] ; Battery Status ; Cycle Count ; SOC [%] ; Relativ SOC[%] ; Desired Voltage [mV]; Desired Current [mA]; Cell Voltage 1 [mV] ; Cell Voltage 2 [mV] ; Max_Error [%] ; Busvoltage[mV] ; Battery Temperature [°C] ; Charger Temperature [°C] ; Batterysystem ; Case ; PLace
009754;01.12.2020;07:00:16;Cycle         ;04.12.2018;FEY;;LION;49;14500;7200;16576;2;98;100;;;4165;4166;1;12996;25.64;25.64;26,7;BCS1388054;1;2
009754;01.12.2020;11:17:17;Stop          ;04.12.2018;FEY;;LION;49;14500;7200;16576;2;98;100;;;4165;4166;1;12991;26.94;28.84;28,8;BCS1388054;1;2
009754;07.02.2021;08:46:54;Normalcharge  ;04.12.2018;FEY;;LION;49;14500;7200;16576;2;93;95;;;4100;4100;1;13009;23.74;26.44;29,2;BCS1388054;3;13
009754;07.02.2021;11:52:16;Stop           ;04.12.2018;FEY;;LION;49;14500;7200;16576;2;93;95;;;4100;4100;1;13010;26.04;28.24;29,7;BCS1388054;3;13
009754;03.03.2021;08:17:29;Normalcharge  ;04.12.2018;FEY;;LION;49;14500;7200;192;2;84;86;8400;3000;4006;4007;1;13021;23.34;23.94;23,5;BCS1388054;4;16
009754;03.03.2021;10:32:46;Stop          ;04.12.2018;FEY;;LION;49;14500;7200;224;2;98;100;8400;;4157;4158;1;13016;28.44;29.64;32,0;BCS1388054;4;16

Note: V1/reader/Batterieverzeichnis/009769.txt
009769;29.11.2020;04:33:37;Cycle          ;04.12.2018;FEY;;LION;49;14500;7200;224;2;100;99;8400;;4159;4160;1;13004;23.24;23.94;27,4;BCS1388054;3;12
009769;12.01.2021;04:17:36;Charge to 90% ;04.12.2018;FEY;;LION;49;14500;7200;224;3;97;99;8400;;4129;4128;1;13005;23.04;22.94;23,6;BCS1388054;5;6
009769;12.01.2021;05:15:37;Stop          ;04.12.2018;FEY;;LION;49;14500;7200;192;4;86;90;8400;3000;4050;4049;1;13001;27.64;27.14;31,6;BCS1388054;5;6
009769;12.01.2021;05:21:53;Cycle         ;04.12.2018;FEY;;LION;49;14500;7200;192;4;86;90;8400;3000;4050;4050;1;13000;27.44;26.54;30,6;BCS1388054;5;6
009769;13.01.2021;08:31:10;Stop          ;04.12.2018;FEY;;LION;49;14500;7200;224;5;96;100;8400;;4154;4154;1;13000;26.74;26.54;31,1;BCS1388054;5;6
009769;22.02.2021;17:31:46;Normalcharge  ;04.12.2018;FEY;;LION;49;14500;7200;192;5;62;64;8400;3000;3794;3795;1;12999;25.84;25.74;31,6;BCS1388054;1;10
009769;22.02.2021;23:06:28;Stop          ;04.12.2018;FEY;;LION;49;14500;7200;224;5;97;100;8400;;4152;4152;1;13000;26.54;26.64;30,6;BCS1388054;1;10

Note: V1/reader/Batterieverzeichnis/009790.txt
Serialnumber ; Date ; Time ; Action ; Date of Manufacture ; Manufacturer ; Battery Name ; Device-Chemistry ; Specification-Info ; Design-Capacity [mAh] ; Design-Voltage [mV] ; Battery Status ; Cycle Count ; SOC [%] ; Relativ SOC[%] ; Desired Voltage [mV]; Desired Current [mA]; Cell Voltage 1 [mV] ; Cell Voltage 2 [mV] ; Max_Error [%] ; Busvoltage[mV] ; Battery Temperature [°C] ; Charger Temperature [°C] ; Batterysystem ; Case ; PLace
009790;07.12.2020;04:14:17;Cycle         ;03.12.2018;FEY;;LION;49;14500;7200;16576;2;96;100;;;4140;4140;1;13003;25.34;27.54;30,3;BCS1388054;1;7
009790;08.12.2020;16:19:38;Stop          ;03.12.2018;FEY;;LION;49;14500;7200;16576;2;96;100;;;4137;4138;1;13004;27.24;28.84;31,9;BCS1388054;1;7
009790;07.02.2021;08:46:42;Normalcharge  ;03.12.2018;FEY;;LION;49;14500;7200;16576;2;94;98;;;4115;4115;1;12992;23.24;25.64;29,2;BCS1388054;1;4
009790;07.02.2021;11:52:07;Stop          ;03.12.2018;FEY;;LION;49;14500;7200;16576;2;94;98;;;4115;4115;1;12991;25.34;26.44;29,7;BCS1388054;1;4
009790;03.03.2021;08:17:21;Normalcharge  ;03.12.2018;FEY;;LION;49;14500;7200;16576;3;89;93;;;4070;4070;1;13007;22.84;23.44;23,5;BCS1388054;3;12
009790;04.03.2021;07:53:40;Stop           ;03.12.2018;FEY;;LION;49;14500;7200;16576;3;89;93;;;4069;4069;1;13002;26.04;27.04;31,5;BCS1388054;3;12

File: 001036.txt
Serialnumber ; Date ; Time ; Action ; Date of Manufacture ; Manufacturer ; Battery Name ; Device-Chemistry ; Specification-Info ; Design-Capacity [mAh] ; Design-Voltage [mV] ; Battery Status ; Cycle Count ; SOC [%] ; Relativ SOC[%] ; Desired Voltage [mV]; Desired Current [mA]; Cell Voltage 1 [mV] ; Cell Voltage 2 [mV] ; Max_Error [%] ; Busvoltage[mV] ; Battery Temperature [°C] ; Charger Temperature [°C] ; Batterysystem ; Case ; PLace
001036;10.12.2019;15:29:15;Charge to 30% ;28.11.2017;FEY;;LION;49;14500;7200;224;22;91;99;8400;;4122;4122;1;13030;22.04;24.44;27,1;BCS1388054;7;3
001036;10.12.2019;20:46:56;Stop          ;28.11.2017;FEY;;LION;49;14500;7200;192;23;28;30;8400;3000;3558;3558;1;13026;31.44;31.74;33,5;BCS1388054;7;3
001036;11.12.2019;08:49:12;Fastcharge    ;28.11.2017;FEY;;LION;49;14500;7200;192;23;28;30;8400;3000;3564;3564;1;13028;25.44;27.54;31,9;BCS1388054;7;3
001036;11.12.2019;13:38:42;Stop          ;28.11.2017;FEY;;LION;49;14500;7200;224;23;93;100;8400;;4161;4161;1;13029;28.64;29.44;32,7;BCS1388054;7;3
001036;11.12.2019;15:46:56;Charge to 10% ;28.11.2017;FEY;;LION;49;14500;7200;224;23;94;100;8400;;4154;4154;1;13029;26.24;27.84;31,2;BCS1388054;7;3
001036;11.12.2019;22:51:50;Stop          ;28.11.2017;FEY;;LION;49;14500;7200;192;24;10;10;8400;3000;3356;3357;1;13027;31.84;31.54;33,0;BCS1388054;7;3
001036;12.12.2019;08:45:27;Normalcharge  ;28.11.2017;FEY;;LION;49;14500;7200;192;24;9;9;8400;3000;3363;3364;1;13027;25.64;27.74;31,7;BCS1388054;7;3
001036;12.12.2019;16:41:08;Stop          ;28.11.2017;FEY;;LION;49;14500;7200;224;24;93;100;8400;;4158;4158;1;13028;27.94;28.84;31,6;BCS1388054;7;3
001036;13.12.2019;10:48:13;Charge to 10% ;28.11.2017;FEY;;LION;49;14500;7200;224;24;94;100;8400;;4149;4149;1;13028;25.64;27.84;32,0;BCS1388054;7;3
001036;13.12.2019;13:48:48;Stop          ;28.11.2017;FEY;;LION;49;14500;7200;192;25;56;60;8400;3000;3669;3721;1;13521;32.94;38.74;36,8;BCS1388054;7;3
001036;16.12.2019;07:43:34;Charge to 10% ;28.11.2017;FEY;;LION;49;14500;7200;192;25;58;62;8400;3000;3774;3772;1;13034;22.14;27.24;31,7;BCS1388054;7;8
001036;16.12.2019;11:52:34;Stop          ;28.11.2017;FEY;;LION;49;14500;7200;192;25;10;10;8400;3000;3356;3356;1;13033;31.84;32.84;34,7;BCS1388054;7;8
001036;16.12.2019;14:44:25;Charge to 90% ;28.11.2017;FEY;;LION;49;14500;7200;192;25;9;10;8400;3000;3360;3360;1;13034;28.44;30.04;31,7;BCS1388054;7;8
001036;16.12.2019;20:53:58;Stop          ;28.11.2017;FEY;;LION;49;14500;7200;192;25;82;90;8400;3000;4029;4031;1;13034;30.64;31.24;32,1;BCS1388054;7;8
001036;17.12.2019;08:38:01;Fastcharge    ;28.11.2017;FEY;;LION;49;14500;7200;192;25;83;90;8400;3000;4024;4025;1;13034;25.74;28.44;31,6;BCS1388054;7;8
001036;17.12.2019;10:36:25;Stop          ;28.11.2017;FEY;;LION;49;14500;7200;224;25;92;100;8400;;4161;4164;1;13034;27.54;29.54;31,5;BCS1388054;7;8
001036;17.12.2019;13:38:44;Charge to 10% ;28.11.2017;FEY;;LION;49;14500;7200;224;25;92;100;8400;;4151;4153;1;13034;26.04;28.54;30,8;BCS1388054;7;8
001036;17.12.2019;20:42:03;Stop          ;28.11.2017;FEY;;LION;49;14500;7200;192;26;10;10;8400;3000;3356;3357;1;13034;32.74;32.44;32,6;BCS1388054;7;8
001036;18.12.2019;08:31:43;Fastcharge    ;28.11.2017;FEY;;LION;49;14500;7200;192;26;8;9;8400;3000;3362;3364;1;13035;25.84;28.54;31,6;BCS1388054;7;8
001036;18.12.2019;14:30:48;Stop          ;28.11.2017;FEY;;LION;49;14500;7200;224;26;91;100;8400;;4160;4164;1;13034;29.54;30.24;31,6;BCS1388054;7;8
001036;19.12.2019;08:24:17;Charge to 60% ;28.11.2017;FEY;;LION;49;14500;7200;224;26;93;100;8400;;4150;4153;1;13034;25.74;28.44;31,6;BCS1388054;7;8
001036;19.12.2019;11:28:26;Stop          ;28.11.2017;FEY;;LION;49;14500;7200;192;27;56;60;8400;3000;3769;3771;1;13032;32.84;34.44;35,1;BCS1388054;7;8
001036;19.12.2019;12:16:57;Cycle         ;28.11.2017;FEY;;LION;49;14500;7200;192;27;56;60;8400;3000;3778;3781;1;13033;29.74;30.34;32,7;BCS1388054;7;8
001036;20.12.2019;17:22:28;Stop          ;28.11.2017;FEY;;LION;49;14500;7200;224;28;92;100;8400;;4153;4153;1;13035;26.24;28.64;31,9;BCS1388054;7;8
001036;06.01.2020;06:35:02;Charge to 60% ;28.11.2017;FEY;;LION;49;14500;7200;192;28;90;98;8400;;4124;4124;1;13035;25.94;28.54;31,9;BCS1388054;7;8
001036;06.01.2020;09:29:52;Stop          ;28.11.2017;FEY;;LION;49;14500;7200;192;29;56;60;8400;3000;3768;3768;1;13033;32.04;33.44;34,0;BCS1388054;7;8
001036;06.01.2020;09:50:50;Fastcharge    ;28.11.2017;FEY;;LION;49;14500;7200;192;29;56;60;8400;3000;3776;3775;1;13035;30.64;30.94;32,7;BCS1388054;7;8
001036;06.01.2020;13:05:11;Stop          ;28.11.2017;FEY;;LION;49;14500;7200;224;29;93;100;8400;;4159;4159;1;13035;29.14;30.24;32,4;BCS1388054;7;8

File: 009565.txt
Serialnumber ; Date ; Time ; Action ; Date of Manufacture ; Manufacturer ; Battery Name ; Device-Chemistry ; Specification-Info ; Design-Capacity [mAh] ; Design-Voltage [mV] ; Battery Status ; Cycle Count ; SOC [%] ; Relativ SOC[%] ; Desired Voltage [mV]; Desired Current [mA]; Cell Voltage 1 [mV] ; Cell Voltage 2 [mV] ; Max_Error [%] ; Busvoltage[mV] ; Battery Temperature [°C] ; Charger Temperature [°C] ; Batterysystem ; Case ; PLace
009565;10.12.2019;15:28:33;Charge to 30% ;03.12.2018;FEY;;LION;49;14500;7200;192;48;92;98;8400;;4108;4108;1;13013;23.14;25.44;27,1;BCS1388054;1;6
009565;10.12.2019;20:42:16;Stop          ;03.12.2018;FEY;;LION;49;14500;7200;192;49;29;30;8400;3000;3557;3556;1;13011;31.54;31.54;34,1;BCS1388054;1;6
009565;11.12.2019;08:48:18;Fastcharge    ;03.12.2018;FEY;;LION;49;14500;7200;192;49;29;30;8400;3000;3568;3568;1;13013;25.64;27.74;31,9;BCS1388054;1;6
009565;11.12.2019;13:40:21;Stop          ;03.12.2018;FEY;;LION;49;14500;7200;224;49;95;100;8400;;4163;4163;1;13012;28.04;28.64;32,4;BCS1388054;1;6
009565;11.12.2019;15:45:57;Charge to 30% ;03.12.2018;FEY;;LION;49;14500;7200;224;49;96;100;8400;;4152;4152;1;13013;26.24;27.54;31,5;BCS1388054;1;6
009565;11.12.2019;15:46:00;Stop          ;03.12.2018;FEY;;LION;49;14500;7200;224;49;96;100;8400;;4152;4152;1;13012;26.24;27.54;31,5;BCS1388054;1;6
009565;11.12.2019;15:46:13;Charge to 10% ;03.12.2018;FEY;;LION;49;14500;7200;224;49;96;100;8400;;4152;4152;1;13012;26.24;27.54;31,5;BCS1388054;1;6
009565;11.12.2019;22:50:20;Stop          ;03.12.2018;FEY;;LION;49;14500;7200;192;50;10;10;8400;3000;3356;3356;1;13011;31.74;31.04;33,4;BCS1388054;1;6
009565;12.12.2019;08:44:40;Normalcharge  ;03.12.2018;FEY;;LION;49;14500;7200;192;50;9;9;8400;3000;3366;3366;1;13012;25.84;27.64;31,9;BCS1388054;1;6
009565;12.12.2019;16:39:22;Stop          ;03.12.2018;FEY;;LION;49;14500;7200;224;50;96;100;8400;;4162;4161;1;13012;27.64;28.44;31,7;BCS1388054;1;6
009565;13.12.2019;10:47:47;Charge to 10% ;03.12.2018;FEY;;LION;49;14500;7200;224;50;96;100;8400;;4148;4147;1;13011;25.84;28.04;32,0;BCS1388054;1;6
009565;13.12.2019;15:41:58;Stop          ;03.12.2018;FEY;;LION;49;14500;7200;192;51;35;36;8400;3000;3501;3551;1;13646;30.84;33.84;34,6;BCS1388054;1;6
009565;13.12.2019;15:42:01;Cycle         ;03.12.2018;FEY;;LION;49;14500;7200;192;51;35;36;8400;3000;3501;3551;1;13646;30.84;33.84;34,6;BCS1388054;1;6
009565;14.12.2019;22:41:25;Stop          ;03.12.2018;FEY;;LION;49;14500;7200;224;52;93;99;8400;;4151;4151;1;13014;25.74;27.74;31,9;BCS1388054;1;6
009565;16.12.2019;07:43:03;Charge to 10% ;03.12.2018;FEY;;LION;49;14500;7200;224;52;94;100;8400;;4145;4145;1;13012;25.54;27.54;31,9;BCS1388054;1;6
009565;16.12.2019;14:36:13;Stop          ;03.12.2018;FEY;;LION;49;14500;7200;192;53;10;10;8400;3000;3364;3364;1;13012;30.54;30.24;32,4;BCS1388054;1;6
009565;16.12.2019;14:44:00;Charge to 90% ;03.12.2018;FEY;;LION;49;14500;7200;192;53;10;10;8400;3000;3367;3367;1;13013;30.04;29.54;31,7;BCS1388054;1;6
009565;16.12.2019;20:50:03;Stop          ;03.12.2018;FEY;;LION;49;14500;7200;192;53;85;90;8400;3000;4057;4058;1;13013;29.64;29.24;31,7;BCS1388054;1;6
009565;17.12.2019;08:37:36;Fastcharge    ;03.12.2018;FEY;;LION;49;14500;7200;192;53;85;90;8400;3000;4046;4047;1;13012;25.64;27.64;31,6;BCS1388054;1;6
009565;17.12.2019;10:31:11;Stop          ;03.12.2018;FEY;;LION;49;14500;7200;224;53;95;100;8400;;4162;4162;1;13013;26.74;27.74;31,4;BCS1388054;1;6
009565;17.12.2019;13:38:19;Charge to 10% ;03.12.2018;FEY;;LION;49;14500;7200;224;53;95;100;8400;;4149;4149;1;13012;25.94;27.54;30,8;BCS1388054;1;6
009565;17.12.2019;20:33:50;Stop          ;03.12.2018;FEY;;LION;49;14500;7200;192;54;10;10;8400;3000;3360;3360;1;13011;31.94;31.24;34,2;BCS1388054;1;6
009565;18.12.2019;08:31:14;Fastcharge    ;03.12.2018;FEY;;LION;49;14500;7200;192;54;9;10;8400;3000;3372;3371;1;13014;25.84;27.34;31,6;BCS1388054;1;6
009565;18.12.2019;14:28:33;Stop          ;03.12.2018;FEY;;LION;49;14500;7200;224;54;94;100;8400;;4163;4164;1;13013;28.04;28.74;31,9;BCS1388054;1;6
009565;19.12.2019;08:23:45;Charge to 60% ;03.12.2018;FEY;;LION;49;14500;7200;224;54;96;100;8400;;4148;4148;1;13013;25.64;27.64;31,5;BCS1388054;1;6
009565;19.12.2019;11:29:32;Stop          ;03.12.2018;FEY;;LION;49;14500;7200;192;54;58;60;8400;3000;3764;3763;1;13012;32.04;31.94;34,9;BCS1388054;1;6
009565;19.12.2019;12:16:33;Cycle         ;03.12.2018;FEY;;LION;49;14500;7200;192;54;58;60;8400;3000;3779;3778;1;13013;28.54;29.04;32,7;BCS1388054;1;6
009565;20.12.2019;17:26:19;Stop          ;03.12.2018;FEY;;LION;49;14500;7200;224;56;94;100;8400;;4151;4151;1;13013;25.74;27.14;31,2;BCS1388054;1;6
009565;06.01.2020;06:34:38;Charge to 60% ;03.12.2018;FEY;;LION;49;14500;7200;192;56;93;99;8400;;4121;4121;1;13013;25.74;27.64;31,9;BCS1388054;1;6
009565;06.01.2020;09:30:29;Stop          ;03.12.2018;FEY;;LION;49;14500;7200;192;56;57;60;8400;3000;3776;3775;1;13013;31.14;30.94;33,9;BCS1388054;1;6
009565;06.01.2020;09:50:27;Fastcharge    ;03.12.2018;FEY;;LION;49;14500;7200;192;56;57;60;8400;3000;3785;3784;1;13012;29.64;29.54;32,6;BCS1388054;1;6
009565;06.01.2020;13:07:36;Stop          ;03.12.2018;FEY;;LION;49;14500;7200;224;56;94;100;8400;;4162;4162;1;13013;27.64;28.14;31,7;BCS1388054;1;6

File: 009608.txt
Serialnumber ; Date ; Time ; Action ; Date of Manufacture ; Manufacturer ; Battery Name ; Device-Chemistry ; Specification-Info ; Design-Capacity [mAh] ; Design-Voltage [mV] ; Battery Status ; Cycle Count ; SOC [%] ; Relativ SOC[%] ; Desired Voltage [mV]; Desired Current [mA]; Cell Voltage 1 [mV] ; Cell Voltage 2 [mV] ; Max_Error [%] ; Busvoltage[mV] ; Battery Temperature [°C] ; Charger Temperature [°C] ; Batterysystem ; Case ; PLace
009608;10.12.2019;15:28:53;Charge to 30% ;04.12.2018;FEY;;LION;49;14500;7200;224;55;93;100;8400;;4129;4128;1;13012;22.74;25.14;27,1;BCS1388054;4;3
009608;10.12.2019;20:47:57;Stop          ;04.12.2018;FEY;;LION;49;14500;7200;192;56;29;30;8400;3000;3559;3557;1;13008;33.94;34.44;33,4;BCS1388054;4;3
009608;11.12.2019;08:48:41;Fastcharge    ;04.12.2018;FEY;;LION;49;14500;7200;192;56;29;30;8400;3000;3567;3566;1;13010;26.64;29.24;31,9;BCS1388054;4;3
009608;11.12.2019;13:42:44;Stop          ;04.12.2018;FEY;;LION;49;14500;7200;224;56;94;100;8400;;4161;4162;1;13010;30.44;31.04;31,9;BCS1388054;4;3
009608;11.12.2019;15:46:31;Charge to 10% ;04.12.2018;FEY;;LION;49;14500;7200;224;56;96;100;8400;;4154;4154;1;13009;27.44;29.44;31,4;BCS1388054;4;3
009608;11.12.2019;22:50:44;Stop          ;04.12.2018;FEY;;LION;49;14500;7200;192;57;10;10;8400;3000;3355;3354;1;13008;34.64;34.34;33,2;BCS1388054;4;3
009608;12.12.2019;08:45:03;Normalcharge  ;04.12.2018;FEY;;LION;49;14500;7200;192;57;9;10;8400;3000;3364;3363;1;13010;26.84;29.34;31,9;BCS1388054;4;3
009608;12.12.2019;16:41:48;Stop          ;04.12.2018;FEY;;LION;49;14500;7200;224;57;96;100;8400;;4162;4163;1;13010;29.54;30.74;31,5;BCS1388054;4;3
009608;13.12.2019;10:48:01;Charge to 10% ;04.12.2018;FEY;;LION;49;14500;7200;224;57;96;100;8400;;4149;4149;1;13009;26.84;29.44;32,0;BCS1388054;4;3
009608;13.12.2019;15:42:25;Stop          ;04.12.2018;FEY;;LION;49;14500;7200;192;58;35;36;8400;3000;3499;3550;1;13499;33.24;39.64;34,6;BCS1388054;4;3
009608;13.12.2019;15:42:27;Cycle         ;04.12.2018;FEY;;LION;49;14500;7200;192;58;35;36;8400;3000;3499;3550;1;13008;33.24;39.64;34,6;BCS1388054;4;3
009608;14.12.2019;22:44:28;Stop          ;04.12.2018;FEY;;LION;49;14500;7200;224;59;93;99;8400;;4151;4151;1;13010;26.94;29.44;32,0;BCS1388054;4;3
009608;16.12.2019;07:43:14;Charge to 10% ;04.12.2018;FEY;;LION;49;14500;7200;224;59;94;100;8400;;4146;4146;1;13010;26.64;28.84;31,9;BCS1388054;4;3
009608;16.12.2019;14:36:44;Stop          ;04.12.2018;FEY;;LION;49;14500;7200;192;60;10;10;8400;3000;3365;3363;1;13010;33.04;33.04;32,4;BCS1388054;4;3
009608;16.12.2019;14:44:13;Charge to 90% ;04.12.2018;FEY;;LION;49;14500;7200;192;60;10;10;8400;3000;3367;3365;1;13009;32.54;31.84;31,7;BCS1388054;4;3
009608;16.12.2019;20:50:27;Stop          ;04.12.2018;FEY;;LION;49;14500;7200;192;60;84;90;8400;3000;4055;4055;1;13010;32.14;32.24;31,6;BCS1388054;4;3
009608;17.12.2019;08:37:49;Fastcharge    ;04.12.2018;FEY;;LION;49;14500;7200;192;60;84;90;8400;3000;4045;4045;1;13010;26.64;29.14;31,6;BCS1388054;4;3
009608;17.12.2019;10:31:06;Stop          ;04.12.2018;FEY;;LION;49;14500;7200;224;60;95;100;8400;;4163;4163;1;13010;28.34;30.74;31,4;BCS1388054;4;3
009608;17.12.2019;13:38:32;Charge to 10% ;04.12.2018;FEY;;LION;49;14500;7200;224;60;95;100;8400;;4150;4150;1;13010;26.94;29.04;30,8;BCS1388054;4;3
009608;17.12.2019;20:34:29;Stop          ;04.12.2018;FEY;;LION;49;14500;7200;192;62;10;10;8400;3000;3362;3361;1;13009;34.74;34.74;34,1;BCS1388054;4;3
009608;18.12.2019;08:31:26;Fastcharge    ;04.12.2018;FEY;;LION;49;14500;7200;192;62;10;10;8400;3000;3372;3371;1;13010;26.74;29.24;31,6;BCS1388054;4;3
009608;18.12.2019;14:29:12;Stop          ;04.12.2018;FEY;;LION;49;14500;7200;224;62;95;100;8400;;4161;4161;1;13010;30.44;31.24;31,9;BCS1388054;4;3
009608;19.12.2019;08:23:58;Charge to 60% ;04.12.2018;FEY;;LION;49;14500;7200;224;62;96;100;8400;;4149;4149;1;13010;26.74;29.24;31,6;BCS1388054;4;3
009608;19.12.2019;11:30:18;Stop          ;04.12.2018;FEY;;LION;49;14500;7200;192;62;58;60;8400;3000;3764;3761;1;13008;34.54;35.84;34,6;BCS1388054;4;3
009608;19.12.2019;12:16:45;Cycle         ;04.12.2018;FEY;;LION;49;14500;7200;192;62;58;60;8400;3000;3775;3772;1;13009;31.04;31.54;32,7;BCS1388054;4;3
009608;20.12.2019;17:30:48;Stop          ;04.12.2018;FEY;;LION;49;14500;7200;224;63;94;100;8400;;4152;4151;1;13011;27.14;28.94;30,6;BCS1388054;4;3
009608;06.01.2020;06:34:50;Charge to 60% ;04.12.2018;FEY;;LION;49;14500;7200;224;63;93;99;8400;;4123;4122;1;13011;26.84;29.34;31,9;BCS1388054;4;3
009608;06.01.2020;09:30:33;Stop          ;04.12.2018;FEY;;LION;49;14500;7200;192;64;57;60;8400;3000;3766;3763;1;13009;33.64;34.84;33,7;BCS1388054;4;3
009608;06.01.2020;09:50:38;Fastcharge    ;04.12.2018;FEY;;LION;49;14500;7200;192;64;57;60;8400;3000;3776;3772;1;13010;32.14;32.14;32,7;BCS1388054;4;3
009608;06.01.2020;13:09:19;Stop          ;04.12.2018;FEY;;LION;49;14500;7200;224;64;94;100;8400;;4159;4159;1;13010;29.94;30.64;31,4;BCS1388054;4;3