Folder: Battery_sort_V2/V1/reader/Batterieverzeichnis_new (part 2)

File: 009699.txt
Serialnumber ; Date ; Time ; Action ; Date of Manufacture ; Manufacturer ; Battery Name ; Device-Chemistry ; Specification-Info ; Design-Capacity [mAh] ; Design-Voltage [mV] ; Battery Status ; Cycle Count ; SOC [%] ; Relativ SOC[%] ; Desired Voltage [mV]; Desired Current [mA]; Cell Voltage 1 [mV] ; Cell Voltage 2 [mV] ; Max_Error [%] ; Busvoltage[mV] ; Battery Temperature [°C] ; Charger Temperature [°C] ; Batterysystem ; Case ; PLace
009699;10.12.2019;15:28:33;Charge to 30% ;04.12.2018;FEY;;LION;49;14500;7200;192;50;91;98;8400;;4109;4106;1;13002;23.44;24.74;27,1;BCS1388054;1;5
009699;10.12.2019;20:42:16;Stop          ;04.12.2018;FEY;;LION;49;14500;7200;192;51;29;30;8400;3000;3563;3561;1;13000;32.04;31.04;34,1;BCS1388054;1;5
009699;11.12.2019;08:48:18;Fastcharge    ;04.12.2018;FEY;;LION;49;14500;7200;192;51;29;30;8400;3000;3571;3569;1;13002;26.04;27.04;31,9;BCS1388054;1;5
009699;11.12.2019;13:40:21;Stop          ;04.12.2018;FEY;;LION;49;14500;7200;224;51;94;100;8400;;4160;4160;1;13002;28.74;28.14;32,4;BCS1388054;1;5
009699;11.12.2019;15:45:57;Charge to 30% ;04.12.2018;FEY;;LION;49;14500;7200;224;51;95;99;8400;;4152;4151;1;13003;26.64;26.94;31,5;BCS1388054;1;5
009699;11.12.2019;15:46:00;Stop          ;04.12.2018;FEY;;LION;49;14500;7200;224;51;95;99;8400;;4152;4151;1;13001;26.64;27.04;31,5;BCS1388054;1;5
009699;11.12.2019;15:46:13;Charge to 10% ;04.12.2018;FEY;;LION;49;14500;7200;224;51;95;99;8400;;4152;4152;1;13001;26.64;26.94;31,5;BCS1388054;1;5
009699;11.12.2019;22:50:20;Stop          ;04.12.2018;FEY;;LION;49;14500;7200;192;52;10;10;8400;3000;3354;3352;1;13001;32.54;30.54;33,4;BCS1388054;1;5
009699;12.12.2019;08:44:40;Normalcharge  ;04.12.2018;FEY;;LION;49;14500;7200;192;52;9;10;8400;3000;3364;3362;1;13002;26.24;27.04;31,9;BCS1388054;1;5
009699;12.12.2019;16:39:22;Stop          ;04.12.2018;FEY;;LION;49;14500;7200;224;52;95;100;8400;;4161;4162;1;13001;28.24;27.84;31,7;BCS1388054;1;5
009699;13.12.2019;10:47:47;Charge to 10% ;04.12.2018;FEY;;LION;49;14500;7200;224;52;96;100;8400;;4148;4147;1;13002;26.24;27.24;32,0;BCS1388054;1;5
009699;13.12.2019;15:41:58;Stop          ;04.12.2018;FEY;;LION;49;14500;7200;192;53;34;36;8400;3000;3499;3548;1;13631;31.54;33.94;34,6;BCS1388054;1;5
009699;13.12.2019;15:42:01;Cycle         ;04.12.2018;FEY;;LION;49;14500;7200;192;53;34;36;8400;3000;3499;3548;1;13631;31.54;33.94;34,6;BCS1388054;1;5
009699;14.12.2019;22:41:25;Stop          ;04.12.2018;FEY;;LION;49;14500;7200;224;54;92;99;8400;;4151;4150;1;13002;26.24;27.14;31,9;BCS1388054;1;5
009699;16.12.2019;07:43:03;Charge to 10% ;04.12.2018;FEY;;LION;49;14500;7200;224;54;93;100;8400;;4145;4144;1;13000;25.94;26.54;31,9;BCS1388054;1;5
009699;16.12.2019;14:36:13;Stop          ;04.12.2018;FEY;;LION;49;14500;7200;192;55;10;10;8400;3000;3367;3365;1;13001;31.24;29.74;32,4;BCS1388054;1;5
009699;16.12.2019;14:44:00;Charge to 90% ;04.12.2018;FEY;;LION;49;14500;7200;192;55;10;10;8400;3000;3369;3367;1;13001;30.64;28.94;31,7;BCS1388054;1;5
009699;16.12.2019;20:50:03;Stop          ;04.12.2018;FEY;;LION;49;14500;7200;192;55;84;90;8400;3000;4055;4054;1;13002;30.34;28.74;31,7;BCS1388054;1;5
009699;17.12.2019;08:37:36;Fastcharge    ;04.12.2018;FEY;;LION;49;14500;7200;192;55;84;90;8400;3000;4046;4045;1;13000;26.04;26.94;31,6;BCS1388054;1;5
009699;17.12.2019;10:31:11;Stop          ;04.12.2018;FEY;;LION;49;14500;7200;224;55;94;100;8400;;4161;4161;1;13001;27.34;27.24;31,4;BCS1388054;1;5
009699;17.12.2019;13:38:19;Charge to 10% ;04.12.2018;FEY;;LION;49;14500;7200;224;55;94;100;8400;;4148;4149;1;13001;26.34;26.74;30,8;BCS1388054;1;5
009699;17.12.2019;20:33:50;Stop          ;04.12.2018;FEY;;LION;49;14500;7200;192;56;10;10;8400;3000;3365;3364;1;13001;32.54;30.84;34,2;BCS1388054;1;5
009699;18.12.2019;08:31:14;Fastcharge    ;04.12.2018;FEY;;LION;49;14500;7200;192;56;10;10;8400;3000;3375;3373;1;13002;26.14;26.74;31,6;BCS1388054;1;5
009699;18.12.2019;14:28:33;Stop          ;04.12.2018;FEY;;LION;49;14500;7200;224;56;94;100;8400;;4161;4162;1;13001;28.84;28.14;31,9;BCS1388054;1;5
009699;19.12.2019;08:23:45;Charge to 60% ;04.12.2018;FEY;;LION;49;14500;7200;224;56;95;100;8400;;4148;4149;1;13001;26.04;26.94;31,5;BCS1388054;1;5
009699;19.12.2019;11:29:32;Stop          ;04.12.2018;FEY;;LION;49;14500;7200;192;57;57;60;8400;3000;3765;3763;1;13001;32.64;31.44;34,9;BCS1388054;1;5
009699;19.12.2019;12:16:33;Cycle         ;04.12.2018;FEY;;LION;49;14500;7200;192;57;57;60;8400;3000;3775;3773;1;13001;29.34;28.44;32,7;BCS1388054;1;5
009699;20.12.2019;17:26:19;Stop          ;04.12.2018;FEY;;LION;49;14500;7200;224;58;93;100;8400;;4151;4151;1;13001;26.24;26.54;31,2;BCS1388054;1;5
009699;06.01.2020;06:34:38;Charge to 60% ;04.12.2018;FEY;;LION;49;14500;7200;224;58;92;99;8400;;4122;4122;1;13002;26.14;26.84;31,9;BCS1388054;1;5
009699;06.01.2020;09:30:29;Stop          ;04.12.2018;FEY;;LION;49;14500;7200;192;58;56;60;8400;3000;3766;3763;1;13002;31.84;30.44;33,9;BCS1388054;1;5
009699;06.01.2020;09:50:27;Fastcharge    ;04.12.2018;FEY;;LION;49;14500;7200;192;58;56;60;8400;3000;3775;3772;1;13001;30.34;28.94;32,6;BCS1388054;1;5
009699;06.01.2020;13:07:36;Stop          ;04.12.2018;FEY;;LION;49;14500;7200;224;58;94;100;8400;;4160;4161;1;13003;28.34;27.64;31,7;BCS1388054;1;5

File: 009814.txt
Serialnumber ; Date ; Time ; Action ; Date of Manufacture ; Manufacturer ; Battery Name ; Device-Chemistry ; Specification-Info ; Design-Capacity [mAh] ; Design-Voltage [mV] ; Battery Status ; Cycle Count ; SOC [%] ; Relativ SOC[%] ; Desired Voltage [mV]; Desired Current [mA]; Cell Voltage 1 [mV] ; Cell Voltage 2 [mV] ; Max_Error [%] ; Busvoltage[mV] ; Battery Temperature [°C] ; Charger Temperature [°C] ; Batterysystem ; Case ; PLace
009814;10.12.2019;15:28:34;Charge to 30% ;04.12.2018;FEY;;LION;49;14500;7200;192;46;91;98;8400;;4110;4110;1;13006;23.74;27.04;27,1;BCS1388054;1;14
009814;10.12.2019;20:42:17;Stop          ;04.12.2018;FEY;;LION;49;14500;7200;192;47;29;30;8400;3000;3561;3560;1;13003;33.24;35.64;34,1;BCS1388054;1;14
009814;11.12.2019;08:48:18;Fastcharge    ;04.12.2018;FEY;;LION;49;14500;7200;192;47;29;30;8400;3000;3569;3569;1;13006;26.34;28.64;31,9;BCS1388054;1;14
009814;11.12.2019;13:40:21;Stop          ;04.12.2018;FEY;;LION;49;14500;7200;224;47;94;100;8400;;4160;4160;1;13005;30.24;31.44;32,4;BCS1388054;1;14
009814;11.12.2019;15:45:57;Charge to 30% ;04.12.2018;FEY;;LION;49;14500;7200;224;47;96;99;8400;;4153;4152;1;13006;27.24;29.04;31,5;BCS1388054;1;14
009814;11.12.2019;15:46:00;Stop          ;04.12.2018;FEY;;LION;49;14500;7200;224;47;96;99;8400;;4153;4152;1;13006;27.24;29.04;31,5;BCS1388054;1;14
009814;11.12.2019;15:46:13;Charge to 10% ;04.12.2018;FEY;;LION;49;14500;7200;224;47;96;99;8400;;4153;4152;1;13006;27.24;29.04;31,5;BCS1388054;1;14
009814;11.12.2019;22:50:20;Stop          ;04.12.2018;FEY;;LION;49;14500;7200;192;48;10;10;8400;3000;3352;3352;1;13005;34.04;35.24;33,4;BCS1388054;1;14
009814;12.12.2019;08:44:40;Normalcharge  ;04.12.2018;FEY;;LION;49;14500;7200;192;48;9;9;8400;3000;3362;3362;1;13006;26.54;28.84;31,9;BCS1388054;1;14
009814;12.12.2019;16:39:22;Stop          ;04.12.2018;FEY;;LION;49;14500;7200;224;48;96;100;8400;;4162;4163;1;13006;29.44;31.54;31,7;BCS1388054;1;14
009814;13.12.2019;10:47:47;Charge to 10% ;04.12.2018;FEY;;LION;49;14500;7200;224;48;96;100;8400;;4148;4148;1;13005;26.54;28.84;32,0;BCS1388054;1;14
009814;13.12.2019;15:41:58;Stop          ;04.12.2018;FEY;;LION;49;14500;7200;192;49;35;36;8400;3000;3500;3550;1;13636;33.04;42.04;34,6;BCS1388054;1;14
009814;13.12.2019;15:42:01;Cycle         ;04.12.2018;FEY;;LION;49;14500;7200;192;49;35;36;8400;3000;3500;3550;1;13004;33.04;42.04;34,6;BCS1388054;1;14
009814;14.12.2019;22:41:25;Stop          ;04.12.2018;FEY;;LION;49;14500;7200;224;50;93;99;8400;;4152;4151;1;13007;26.74;28.74;31,9;BCS1388054;1;14
009814;16.12.2019;07:43:03;Charge to 10% ;04.12.2018;FEY;;LION;49;14500;7200;224;50;94;100;8400;;4146;4145;1;13005;26.34;28.34;31,9;BCS1388054;1;14
009814;16.12.2019;14:36:13;Stop          ;04.12.2018;FEY;;LION;49;14500;7200;192;51;10;10;8400;3000;3365;3364;1;13006;32.84;34.34;32,4;BCS1388054;1;14
009814;16.12.2019;14:44:00;Charge to 90% ;04.12.2018;FEY;;LION;49;14500;7200;192;51;10;10;8400;3000;3366;3366;1;13006;32.24;32.14;31,7;BCS1388054;1;14
009814;16.12.2019;20:50:03;Stop          ;04.12.2018;FEY;;LION;49;14500;7200;192;51;84;90;8400;3000;4060;4061;1;13007;32.04;34.84;31,7;BCS1388054;1;14
009814;17.12.2019;08:37:37;Fastcharge    ;04.12.2018;FEY;;LION;49;14500;7200;192;51;84;90;8400;3000;4048;4048;1;13007;26.34;28.54;31,6;BCS1388054;1;14
009814;17.12.2019;10:31:11;Stop          ;04.12.2018;FEY;;LION;49;14500;7200;224;51;95;100;8400;;4160;4161;1;13005;28.04;30.24;31,4;BCS1388054;1;14
009814;17.12.2019;13:38:19;Charge to 10% ;04.12.2018;FEY;;LION;49;14500;7200;224;51;95;100;8400;;4150;4150;1;13006;26.64;28.54;30,8;BCS1388054;1;14
009814;17.12.2019;20:33:50;Stop          ;04.12.2018;FEY;;LION;49;14500;7200;192;52;10;10;8400;3000;3363;3363;1;13004;34.04;35.34;34,2;BCS1388054;1;14
009814;18.12.2019;08:31:14;Fastcharge    ;04.12.2018;FEY;;LION;49;14500;7200;192;52;10;10;8400;3000;3373;3373;1;13005;26.44;28.74;31,6;BCS1388054;1;14
009814;18.12.2019;14:28:33;Stop          ;04.12.2018;FEY;;LION;49;14500;7200;224;52;94;100;8400;;4159;4161;1;13006;30.34;31.34;31,9;BCS1388054;1;14
009814;19.12.2019;08:23:45;Charge to 60% ;04.12.2018;FEY;;LION;49;14500;7200;224;52;95;100;8400;;4148;4149;1;13006;26.34;28.54;31,5;BCS1388054;1;14
009814;19.12.2019;11:29:32;Stop          ;04.12.2018;FEY;;LION;49;14500;7200;192;53;57;60;8400;3000;3765;3767;1;13005;33.74;37.14;34,9;BCS1388054;1;14
009814;19.12.2019;12:16:33;Cycle         ;04.12.2018;FEY;;LION;49;14500;7200;192;53;57;60;8400;3000;3777;3779;1;13005;30.54;30.84;32,7;BCS1388054;1;14
009814;20.12.2019;17:26:19;Stop          ;04.12.2018;FEY;;LION;49;14500;7200;224;54;93;100;8400;;4152;4151;1;13007;26.64;28.64;31,2;BCS1388054;1;14
009814;06.01.2020;06:34:38;Charge to 60% ;04.12.2018;FEY;;LION;49;14500;7200;224;54;92;99;8400;;4123;4122;1;13006;26.44;28.64;31,9;BCS1388054;1;14
009814;06.01.2020;09:30:30;Stop          ;04.12.2018;FEY;;LION;49;14500;7200;192;54;57;60;8400;3000;3767;3766;1;13005;32.94;36.34;33,9;BCS1388054;1;14
009814;06.01.2020;09:50:27;Fastcharge    ;04.12.2018;FEY;;LION;49;14500;7200;192;54;57;60;8400;3000;3776;3776;1;13007;31.54;31.44;32,6;BCS1388054;1;14
009814;06.01.2020;13:07:36;Stop          ;04.12.2018;FEY;;LION;49;14500;7200;224;54;94;100;8400;;4160;4160;1;13007;29.74;31.24;31,7;BCS1388054;1;14

File: 009816.txt
Serialnumber ; Date ; Time ; Action ; Date of Manufacture ; Manufacturer ; Battery Name ; Device-Chemistry ; Specification-Info ; Design-Capacity [mAh] ; Design-Voltage [mV] ; Battery Status ; Cycle Count ; SOC [%] ; Relativ SOC[%] ; Desired Voltage [mV]; Desired Current [mA]; Cell Voltage 1 [mV] ; Cell Voltage 2 [mV] ; Max_Error [%] ; Busvoltage[mV] ; Battery Temperature [°C] ; Charger Temperature [°C] ; Batterysystem ; Case ; PLace
009816;10.12.2019;15:28:34;Charge to 30% ;03.12.2018;FEY;;LION;49;14500;7200;224;33;93;99;8400;;4113;4112;1;13012;23.34;25.64;27,1;BCS1388054;1;13
009816;10.12.2019;20:42:17;Stop          ;03.12.2018;FEY;;LION;49;14500;7200;192;34;29;30;8400;3000;3552;3549;1;13009;32.74;38.64;34,1;BCS1388054;1;13
009816;11.12.2019;08:48:18;Fastcharge    ;03.12.2018;FEY;;LION;49;14500;7200;192;34;29;30;8400;3000;3568;3567;1;13011;25.94;27.14;31,9;BCS1388054;1;13
009816;11.12.2019;13:40:21;Stop          ;03.12.2018;FEY;;LION;49;14500;7200;224;34;96;100;8400;;4165;4166;1;13011;29.54;30.84;32,4;BCS1388054;1;13
009816;11.12.2019;15:45:57;Charge to 30% ;03.12.2018;FEY;;LION;49;14500;7200;224;34;97;100;8400;;4156;4156;1;13012;26.74;27.64;31,5;BCS1388054;1;13
009816;11.12.2019;15:46:00;Stop          ;03.12.2018;FEY;;LION;49;14500;7200;224;34;97;100;8400;;4156;4156;1;13011;26.74;27.54;31,5;BCS1388054;1;13
009816;11.12.2019;15:46:13;Charge to 10% ;03.12.2018;FEY;;LION;49;14500;7200;224;34;97;100;8400;;4156;4156;1;13011;26.74;27.54;31,5;BCS1388054;1;13
009816;11.12.2019;22:50:20;Stop          ;03.12.2018;FEY;;LION;49;14500;7200;192;35;10;10;8400;3000;3253;3305;1;13010;33.54;39.64;33,4;BCS1388054;1;13
009816;12.12.2019;08:44:40;Normalcharge  ;03.12.2018;FEY;;LION;49;14500;7200;192;35;9;9;8400;3000;3361;3361;1;13011;26.14;27.34;31,9;BCS1388054;1;13
009816;12.12.2019;16:39:22;Stop          ;03.12.2018;FEY;;LION;49;14500;7200;224;35;97;100;8400;;4162;4162;1;13010;28.74;30.04;31,7;BCS1388054;1;13
009816;13.12.2019;10:47:47;Charge to 10% ;03.12.2018;FEY;;LION;49;14500;7200;224;35;97;100;8400;;4149;4149;1;13011;26.14;27.34;32,0;BCS1388054;1;13
009816;13.12.2019;15:41:58;Stop          ;03.12.2018;FEY;;LION;49;14500;7200;192;36;36;37;8400;3000;3506;3557;1;13640;32.34;41.04;34,6;BCS1388054;1;13
009816;13.12.2019;15:42:01;Cycle         ;03.12.2018;FEY;;LION;49;14500;7200;192;36;36;37;8400;3000;3506;3556;1;13008;32.34;40.94;34,6;BCS1388054;1;13
009816;14.12.2019;22:41:25;Stop          ;03.12.2018;FEY;;LION;49;14500;7200;224;37;94;100;8400;;4154;4153;1;13011;26.24;27.24;31,9;BCS1388054;1;13
009816;16.12.2019;07:43:03;Charge to 10% ;03.12.2018;FEY;;LION;49;14500;7200;224;37;95;100;8400;;4148;4146;1;13011;25.94;26.84;31,9;BCS1388054;1;13
009816;16.12.2019;14:36:13;Stop          ;03.12.2018;FEY;;LION;49;14500;7200;192;38;10;10;8400;3000;3268;3319;1;13011;32.34;38.74;32,4;BCS1388054;1;13
009816;16.12.2019;14:44:00;Charge to 90% ;03.12.2018;FEY;;LION;49;14500;7200;192;38;10;10;8400;3000;3364;3363;1;13010;31.74;31.04;31,7;BCS1388054;1;13
009816;16.12.2019;20:50:03;Stop          ;03.12.2018;FEY;;LION;49;14500;7200;128;38;85;90;8400;3000;4150;4076;1;13012;31.34;37.84;31,7;BCS1388054;1;13
009816;17.12.2019;08:37:37;Fastcharge    ;03.12.2018;FEY;;LION;49;14500;7200;192;38;85;90;8400;3000;4047;4047;1;13011;25.94;27.14;31,6;BCS1388054;1;13
009816;17.12.2019;10:31:11;Stop          ;03.12.2018;FEY;;LION;49;14500;7200;224;38;96;100;8400;;4162;4163;1;13011;27.54;28.94;31,4;BCS1388054;1;13
009816;17.12.2019;13:38:19;Charge to 10% ;03.12.2018;FEY;;LION;49;14500;7200;224;38;96;100;8400;;4153;4154;1;13012;26.24;27.14;30,8;BCS1388054;1;13
009816;17.12.2019;20:33:50;Stop          ;03.12.2018;FEY;;LION;49;14500;7200;192;39;10;10;8400;3000;3267;3319;1;13010;33.54;39.54;34,2;BCS1388054;1;13
009816;18.12.2019;08:31:14;Fastcharge    ;03.12.2018;FEY;;LION;49;14500;7200;192;39;10;10;8400;3000;3371;3371;1;13011;26.14;27.24;31,6;BCS1388054;1;13
009816;18.12.2019;14:28:33;Stop          ;03.12.2018;FEY;;LION;49;14500;7200;224;39;96;100;8400;;4164;4166;1;13010;29.54;30.44;31,9;BCS1388054;1;13
009816;19.12.2019;08:23:45;Charge to 60% ;03.12.2018;FEY;;LION;49;14500;7200;224;39;96;100;8400;;4152;4153;1;13011;26.04;27.04;31,5;BCS1388054;1;13
009816;19.12.2019;11:29:32;Stop          ;03.12.2018;FEY;;LION;49;14500;7200;192;40;58;60;8400;3000;3765;3765;1;13009;33.14;38.24;34,9;BCS1388054;1;13
009816;19.12.2019;12:16:33;Cycle         ;03.12.2018;FEY;;LION;49;14500;7200;192;40;58;60;8400;3000;3785;3785;1;13011;29.74;29.34;32,7;BCS1388054;1;13
009816;20.12.2019;17:26:19;Stop          ;03.12.2018;FEY;;LION;49;14500;7200;224;41;95;100;8400;;4154;4152;1;13012;26.24;27.14;31,2;BCS1388054;1;13
009816;06.01.2020;06:34:38;Charge to 60% ;03.12.2018;FEY;;LION;49;14500;7200;224;41;93;99;8400;;4123;4122;1;13012;26.14;27.14;31,9;BCS1388054;1;13
009816;06.01.2020;09:30:30;Stop          ;03.12.2018;FEY;;LION;49;14500;7200;192;42;57;60;8400;3000;3764;3762;1;13012;32.34;37.04;33,9;BCS1388054;1;13
009816;06.01.2020;09:50:27;Fastcharge    ;03.12.2018;FEY;;LION;49;14500;7200;192;42;57;60;8400;3000;3781;3779;1;13012;30.84;30.04;32,6;BCS1388054;1;13
009816;06.01.2020;13:07:36;Stop          ;03.12.2018;FEY;;LION;49;14500;7200;224;42;95;100;8400;;4164;4163;1;13012;29.04;30.54;31,7;BCS1388054;1;13

File: 009847.txt
Serialnumber ; Date ; Time ; Action ; Date of Manufacture ; Manufacturer ; Battery Name ; Device-Chemistry ; Specification-Info ; Design-Capacity [mAh] ; Design-Voltage [mV] ; Battery Status ; Cycle Count ; SOC [%] ; Relativ SOC[%] ; Desired Voltage [mV]; Desired Current [mA]; Cell Voltage 1 [mV] ; Cell Voltage 2 [mV] ; Max_Error [%] ; Busvoltage[mV] ; Battery Temperature [°C] ; Charger Temperature [°C] ; Batterysystem ; Case ; PLace
009847;10.12.2019;15:29:01;Charge to 30% ;03.12.2018;FEY;;LION;49;14500;7200;224;50;94;100;8400;;4129;4129;1;13023;22.44;24.54;27,1;BCS1388054;5;9
009847;10.12.2019;20:48:54;Stop          ;03.12.2018;FEY;;LION;49;14500;7200;192;51;29;30;8400;3000;3558;3557;1;13021;33.94;33.54;33,1;BCS1388054;5;9
009847;11.12.2019;08:48:53;Fastcharge    ;03.12.2018;FEY;;LION;49;14500;7200;192;51;29;30;8400;3000;3568;3568;1;13021;26.54;28.24;31,9;BCS1388054;5;9
009847;11.12.2019;13:40:11;Stop          ;03.12.2018;FEY;;LION;49;14500;7200;224;51;95;100;8400;;4162;4161;1;13022;30.74;30.64;32,4;BCS1388054;5;9
009847;11.12.2019;15:46:40;Charge to 10% ;03.12.2018;FEY;;LION;49;14500;7200;224;51;97;100;8400;;4153;4153;1;13022;27.44;28.44;31,4;BCS1388054;5;9
009847;11.12.2019;22:49:07;Stop          ;03.12.2018;FEY;;LION;49;14500;7200;192;52;10;10;8400;3000;3345;3344;1;13021;35.04;35.64;33,5;BCS1388054;5;9
009847;12.12.2019;08:45:10;Normalcharge  ;03.12.2018;FEY;;LION;49;14500;7200;192;52;9;9;8400;3000;3361;3360;1;13021;26.74;28.34;31,7;BCS1388054;5;9
009847;12.12.2019;16:41:20;Stop          ;03.12.2018;FEY;;LION;49;14500;7200;224;52;96;100;8400;;4163;4162;1;13021;29.74;30.04;31,6;BCS1388054;5;9
009847;13.12.2019;10:48:05;Charge to 10% ;03.12.2018;FEY;;LION;49;14500;7200;224;52;97;100;8400;;4148;4148;1;13022;26.74;28.34;32,0;BCS1388054;5;9
009847;13.12.2019;15:40:55;Stop          ;03.12.2018;FEY;;LION;49;14500;7200;192;53;36;37;8400;3000;3505;3555;1;13531;32.94;37.94;34,6;BCS1388054;5;9
009847;13.12.2019;15:41:42;Cycle         ;03.12.2018;FEY;;LION;49;14500;7200;192;53;36;37;8400;3000;3586;3585;1;13021;32.94;35.74;34,5;BCS1388054;5;9
009847;14.12.2019;22:39:35;Stop          ;03.12.2018;FEY;;LION;49;14500;7200;224;54;94;99;8400;;4151;4151;1;13022;26.84;28.24;31,7;BCS1388054;5;9
009847;16.12.2019;07:43:20;Charge to 10% ;03.12.2018;FEY;;LION;49;14500;7200;224;54;95;100;8400;;4145;4145;1;13022;26.54;27.54;31,9;BCS1388054;5;9
009847;16.12.2019;14:34:29;Stop          ;03.12.2018;FEY;;LION;49;14500;7200;192;55;10;10;8400;3000;3354;3354;1;13022;33.04;35.24;32,5;BCS1388054;5;9
009847;16.12.2019;14:44:17;Charge to 90% ;03.12.2018;FEY;;LION;49;14500;7200;192;55;10;10;8400;3000;3364;3364;1;13022;32.34;30.84;31,9;BCS1388054;5;9
009847;16.12.2019;20:48:55;Stop          ;03.12.2018;FEY;;LION;49;14500;7200;128;55;85;90;8400;3000;4063;4067;1;13022;32.64;33.34;31,9;BCS1388054;5;9
009847;17.12.2019;08:37:53;Fastcharge    ;03.12.2018;FEY;;LION;49;14500;7200;192;55;85;90;8400;3000;4046;4047;1;13021;26.64;28.14;31,6;BCS1388054;5;9
009847;17.12.2019;10:33:46;Stop          ;03.12.2018;FEY;;LION;49;14500;7200;224;55;95;100;8400;;4161;4161;1;13022;28.44;29.14;31,1;BCS1388054;5;9
009847;17.12.2019;10:33:46;Stop          ;03.12.2018;FEY;;LION;49;14500;7200;224;55;95;100;8400;;4161;4161;1;13022;28.44;29.14;31,1;BCS1388054;5;9
009847;17.12.2019;13:38:36;Charge to 10% ;03.12.2018;FEY;;LION;49;14500;7200;224;55;95;100;8400;;4150;4150;1;13022;26.94;28.04;30,8;BCS1388054;5;9
009847;17.12.2019;20:33:18;Stop          ;03.12.2018;FEY;;LION;49;14500;7200;192;56;10;10;8400;3000;3359;3358;1;13022;34.94;35.04;34,5;BCS1388054;5;9
009847;18.12.2019;08:31:30;Fastcharge    ;03.12.2018;FEY;;LION;49;14500;7200;192;56;10;10;8400;3000;3371;3371;1;13022;26.74;28.24;31,6;BCS1388054;5;9
009847;18.12.2019;14:29:27;Stop          ;03.12.2018;FEY;;LION;49;14500;7200;224;56;95;100;8400;;4161;4161;1;13021;30.74;30.24;31,7;BCS1388054;5;9
009847;19.12.2019;08:24:02;Charge to 60% ;03.12.2018;FEY;;LION;49;14500;7200;224;56;96;100;8400;;4148;4149;1;13020;26.64;28.14;31,5;BCS1388054;5;9
009847;19.12.2019;11:31:09;Stop          ;03.12.2018;FEY;;LION;49;14500;7200;192;57;58;60;8400;3000;3768;3768;1;13021;34.44;34.44;34,4;BCS1388054;5;9
009847;19.12.2019;12:16:49;Cycle         ;03.12.2018;FEY;;LION;49;14500;7200;192;57;58;60;8400;3000;3780;3780;1;13021;31.14;30.54;32,7;BCS1388054;5;9
009847;20.12.2019;17:27:50;Stop          ;03.12.2018;FEY;;LION;49;14500;7200;224;58;94;100;8400;;4152;4152;1;13022;27.14;28.14;31,0;BCS1388054;5;9
009847;06.01.2020;06:34:55;Charge to 60% ;03.12.2018;FEY;;LION;49;14500;7200;224;58;93;99;8400;;4122;4121;1;13022;26.94;28.34;31,9;BCS1388054;5;9
009847;06.01.2020;09:30:26;Stop          ;03.12.2018;FEY;;LION;49;14500;7200;192;59;57;60;8400;3000;3768;3767;1;13023;33.64;34.24;33,9;BCS1388054;5;9
009847;06.01.2020;09:50:42;Fastcharge    ;03.12.2018;FEY;;LION;49;14500;7200;192;59;57;60;8400;3000;3779;3779;1;13022;32.14;31.04;32,7;BCS1388054;5;9
009847;06.01.2020;13:09:56;Stop          ;03.12.2018;FEY;;LION;49;14500;7200;224;59;95;100;8400;;4160;4161;1;13023;30.34;29.74;31,4;BCS1388054;5;9